Folder: Sommarjobb-2024

File: A10_15keV_10_02.txt
#FORMAT      : EMSA/MAS Spectral Data File
#VERSION     : 1.0
#TITLE       : A10_15keV_10_02
#DATE        : 04-JUL-2024
#TIME        : 10:28
#OWNER       :
#NPOINTS     : 1024.0
#NCOLUMNS    : 1.0
#XUNITS      : keV
#YUNITS      : counts
#DATATYPE    : XY
#XPERCHAN    : 0.02
#OFFSET      : -0.2
#SIGNALTYPE  : EDS
#CHOFFSET    : 10.0
#LIVETIME    : 120.075
#REALTIME    : 122.514
#BEAMKV      : 15.0
#MAGCAM      : 220.0
#XTILTSTGE   : 0.0
#AZIMANGLE   : 0.0
#ELEVANGLE   : 25.5
#XPOSITION mm: -0.1828
#YPOSITION mm: -1.1990
#ZPOSITION mm: 14.6374
##OXINSTPT   : 2
##OXINSTSTROB: 69.77
##OXINSTELEMS: 6,8,16,29,7,15,9
##OXINSTLABEL: 6, 0.277, C K?1_2
##OXINSTLABEL: 8, 0.525, O K?1
##OXINSTLABEL: 16, 2.308, S K?1
##OXINSTLABEL: 16, 2.464, S K?1
##OXINSTLABEL: 29, 8.048, Cu K?1
##OXINSTLABEL: 29, 8.905, Cu K?1
##OXINSTLABEL: 29, 0.930, Cu L?1,2
##OXINSTLABEL: 29, 0.832, Cu L?
##OXINSTLABEL: 29, 0.811, Cu Ll
##OXINSTLABEL: 7, 0.392, N K?1_2
##OXINSTLABEL: 15, 2.014, P K?1
##OXINSTLABEL: 15, 2.139, P K?1
##OXINSTLABEL: 9, 0.677, F K?1_2
#SPECTRUM    : Spectral Data Starts Here
-0.20000, 0.0
-0.12000, 0.0
-0.04000, 516.0
0.04000, 10058.0
0.12000, 1979.0
0.20000, 1014.0
0.28000, 460.0
0.36000, 173.0
0.44000, 237.0
0.52000, 699.0
0.60000, 792.0
0.68000, 459.0
0.76000, 495.0
0.84000, 530.0
0.92000, 617.0
1.00000, 714.0
1.08000, 776.0
1.16000, 820.0
1.24000, 834.0
1.32000, 861.0
1.40000, 859.0
1.48000, 868.0
1.56000, 887.0
1.64000, 1015.0
1.72000, 3604.0
1.80000, 2187.0
1.88000, 911.0
1.96000, 1058.0
2.04000, 1394.0
2.12000, 1038.0
2.20000, 3708.0
2.28000, 34046.0
2.36000, 25013.0
2.44000, 7446.0
2.52000, 2543.0
2.60000, 673.0
2.68000, 438.0
2.76000, 376.0
2.84000, 473.0
2.92000, 366.0
3.00000, 307.0
3.08000, 317.0
3.16000, 340.0
3.24000, 335.0
3.32000, 316.0
3.40000, 332.0
3.48000, 298.0
3.56000, 316.0
3.64000, 298.0
3.72000, 335.0
3.80000, 314.0
3.88000, 301.0
3.96000, 317.0
4.04000, 280.0
4.12000, 296.0
4.20000, 307.0
4.28000, 298.0
4.36000, 293.0
4.44000, 286.0
4.52000, 269.0
4.60000, 295.0
4.68000, 282.0
4.76000, 264.0
4.84000, 272.0
4.92000, 246.0
5.00000, 237.0
5.08000, 231.0
5.16000, 256.0
5.24000, 225.0
5.32000, 236.0
5.40000, 226.0
5.48000, 199.0
5.56000, 195.0
5.64000, 210.0
5.72000, 208.0
5.80000, 213.0
5.88000, 197.0
5.96000, 207.0
6.04000, 187.0
6.12000, 196.0
6.20000, 187.0
6.28000, 163.0
6.36000, 147.0
6.44000, 173.0
6.52000, 175.0
6.60000, 168.0
6.68000, 154.0
6.76000, 156.0
6.84000, 160.0
6.92000, 143.0
7.00000, 166.0
7.08000, 154.0
7.16000, 141.0
7.24000, 147.0
7.32000, 123.0
7.40000, 136.0
7.48000, 133.0
7.56000, 137.0
7.64000, 132.0
7.72000, 128.0
7.80000, 136.0
7.88000, 129.0
7.96000, 122.0
8.04000, 110.0
8.12000, 117.0
8.20000, 108.0
8.28000, 109.0
8.36000, 121.0
8.44000, 115.0
8.52000, 98.0
8.60000, 104.0
8.68000, 106.0
8.76000, 101.0
8.84000, 102.0
8.92000, 100.0
9.00000, 86.0
9.08000, 88.0
9.16000, 89.0
9.24000, 89.0
9.32000, 90.0
9.40000, 85.0
9.48000, 88.0
9.56000, 81.0
9.64000, 77.0
9.72000, 76.0
9.80000, 84.0
9.88000, 81.0
9.96000, 84.0
10.04000, 65.0
10.12000, 76.0
10.20000, 63.0
10.28000, 69.0
10.36000, 63.0
10.44000, 61.0
10.52000, 55.0
10.60000, 62.0
10.68000, 61.0
10.76000, 61.0
10.84000, 59.0
10.92000, 61.0
11.00000, 58.0
11.08000, 53.0
11.16000, 45.0
11.24000, 52.0
11.32000, 45.0
11.40000, 48.0
11.48000, 43.0
11.56000, 49.0
11.64000, 43.0
11.72000, 44.0
11.80000, 40.0
11.88000, 41.0
11.96000, 34.0
12.04000, 26.0
12.12000, 41.0
12.20000, 31.0
12.28000, 26.0
12.36000, 29.0
12.44000, 33.0
12.52000, 35.0
12.60000, 35.0
12.68000, 24.0
12.76000, 24.0
12.84000, 23.0
12.92000, 21.0
13.00000, 25.0
13.08000, 20.0
13.16000, 16.0
13.24000, 21.0
13.32000, 15.0
13.40000, 20.0
13.48000, 15.0
13.56000, 17.0
13.64000, 16.0
13.72000, 15.0
13.80000, 11.0
13.88000, 11.0
13.96000, 10.0
14.04000, 10.0
14.12000, 9.0
14.20000, 6.0
14.28000, 7.0
14.36000, 7.0
14.44000, 5.0
14.52000, 4.0
14.60000, 3.0
14.68000, 6.0
14.76000, 4.0
14.84000, 3.0
14.92000, 1.0
15.00000, 0.0
15.08000, 0.0
15.16000, 1.0
15.24000, 0.0
15.32000, 0.0
15.40000, 0.0
15.48000, 0.0
15.56000, 1.0
15.64000, 0.0
15.72000, 0.0
15.80000, 0.0
15.88000, 0.0
15.96000, 0.0
16.04000, 0.0
16.12000, 0.0
16.20000, 0.0
16.28000, 0.0
16.36000, 0.0
16.44000, 0.0
16.52000, 0.0
16.60000, 1.0
16.68000, 0.0
16.76000, 0.0
16.84000, 0.0
16.92000, 0.0
17.00000, 0.0
17.08000, 0.0
17.16000, 0.0
17.24000, 0.0
17.32000, 0.0
17.40000, 0.0
17.48000, 0.0
17.56000, 0.0
17.64000, 0.0
17.72000, 0.0
17.80000, 0.0
17.88000, 0.0
17.96000, 0.0
18.04000, 0.0
18.12000, 0.0
18.20000, 0.0
18.28000, 0.0
18.36000, 0.0
18.44000, 0.0
18.52000, 0.0
18.60000, 0.0
18.68000, 0.0
18.76000, 0.0
18.84000, 0.0
18.92000, 0.0
19.00000, 0.0
19.08000, 0.0
19.16000, 0.0
19.24000, 0.0
19.32000, 0.0
19.40000, 0.0
19.48000, 0.0
19.56000, 0.0
19.64000, 0.0
19.72000, 0.0
19.80000, 0.0
19.88000, 0.0
19.96000, 0.0
20.04000, 0.0
20.12000, 0.0
20.20000, 0.0
20.26000, 0.0
#ENDOFDATA   :

File: C10_12.txt
#FORMAT      : EMSA/MAS Spectral Data File
#VERSION     : 1.0
#TITLE       : Spectrum 7
#DATE        : 19-AUG-2024
#TIME        : 11:00
#OWNER       :
#NPOINTS     : 2048.0
#NCOLUMNS    : 1.0
#XUNITS      : keV
#YUNITS      : counts
#DATATYPE    : XY
#XPERCHAN    : 0.005
#OFFSET      : -0.1
#SIGNALTYPE  : EDS
#CHOFFSET    : 20.0
#LIVETIME    : 60.0174
#REALTIME    : 64.2999
#BEAMKV      : 10.0
#MAGCAM      : 1600.0
#XTILTSTGE   : 0.0
#AZIMANGLE   : 0.0
#ELEVANGLE   : 25.5
#XPOSITION mm: -0.3338
#YPOSITION mm: 0.6498
#ZPOSITION mm: 13.6215
##OXINSTPT   : 2
##OXINSTSTROB: 69.69
##OXINSTELEMS: 14,16,8,42,6
##OXINSTLABEL: 14, 1.740, Si K?1
##OXINSTLABEL: 16, 2.308, S K?1
##OXINSTLABEL: 16, 2.464, S K?1
##OXINSTLABEL: 8, 0.525, O K?1
##OXINSTLABEL: 42, 0.193, Mo M?
##OXINSTLABEL: 42, 2.016, Mo Ll
##OXINSTLABEL: 42, 2.120, Mo L?
##OXINSTLABEL: 42, 2.293, Mo L?1
##OXINSTLABEL: 42, 2.395, Mo L?1
##OXINSTLABEL: 42, 2.518, Mo L?2,15
##OXINSTLABEL: 42, 2.624, Mo L?1
##OXINSTLABEL: 42, 2.831, Mo L?2,3
##OXINSTLABEL: 6, 0.277, C K?1_2
#SPECTRUM    : Spectral Data Starts Here
-0.10000, 0.0
-0.06500, 3.0
-0.03000, 123.0
0.00500, 663.0
0.04000, 1238.0
0.07500, 930.0
0.11000, 841.0
0.14500, 1540.0
0.18000, 1474.0
0.21500, 809.0
0.25000, 513.0
0.28500, 413.0
0.32000, 224.0
0.35500, 186.0
0.39000, 192.0
0.42500, 307.0
0.46000, 537.0
0.49500, 1370.0
0.53000, 1853.0
0.56500, 1172.0
0.60000, 572.0
0.63500, 402.0
0.67000, 433.0
0.70500, 464.0
0.74000, 482.0
0.77500, 523.0
0.81000, 552.0
0.84500, 557.0
0.88000, 586.0
0.91500, 608.0
0.95000, 578.0
0.98500, 615.0
1.02000, 608.0
1.05500, 606.0
1.09000, 613.0
1.12500, 607.0
1.16000, 580.0
1.19500, 624.0
1.23000, 629.0
1.26500, 605.0
1.30000, 615.0
1.33500, 587.0
1.37000, 597.0
1.40500, 607.0
1.44000, 608.0
1.47500, 621.0
1.51000, 626.0
1.54500, 613.0
1.58000, 610.0
1.61500, 692.0
1.65000, 1748.0
1.68500, 6383.0
1.72000, 14302.0
1.75500, 16038.0
1.79000, 9193.0
1.82500, 3202.0
1.86000, 1263.0
1.89500, 688.0
1.93000, 484.0
1.96500, 501.0
2.00000, 577.0
2.03500, 621.0
2.07000, 531.0
2.10500, 478.0
2.14000, 470.0
2.17500, 621.0
2.21000, 1619.0
2.24500, 5086.0
2.28000, 10518.0
2.31500, 12518.0
2.35000, 8901.0
2.38500, 4864.0
2.42000, 2902.0
2.45500, 2089.0
2.49000, 1469.0
2.52500, 881.0
2.56000, 526.0
2.59500, 364.0
2.63000, 319.0
2.66500, 268.0
2.70000, 227.0
2.73500, 232.0
2.77000, 242.0
2.80500, 265.0
2.84000, 270.0
2.87500, 268.0
2.91000, 226.0
2.94500, 223.0
2.98000, 201.0
3.01500, 213.0
3.05000, 204.0
3.08500, 217.0
3.12000, 207.0
3.15500, 205.0
3.19000, 202.0
3.22500, 184.0
3.26000, 195.0
3.29500, 209.0
3.33000, 234.0
3.36500, 195.0
3.40000, 214.0
3.43500, 206.0
3.47000, 241.0
3.50500, 214.0
3.54000, 200.0
3.57500, 199.0
3.61000, 163.0
3.64500, 163.0
3.68000, 190.0
3.71500, 177.0
3.75000, 179.0
3.78500, 171.0
3.82000, 151.0
3.85500, 161.0
3.89000, 164.0
3.92500, 163.0
3.96000, 172.0
3.99500, 210.0
4.03000, 225.0
4.06500, 224.0
4.10000, 202.0
4.13500, 169.0
4.17000, 159.0
4.20500, 159.0
4.24000, 181.0
4.27500, 158.0
4.31000, 143.0
4.34500, 127.0
4.38000, 140.0
4.41500, 155.0
4.45000, 148.0
4.48500, 127.0
4.52000, 134.0
4.55500, 164.0
4.59000, 168.0
4.62500, 158.0
4.66000, 142.0
4.69500, 138.0
4.73000, 142.0
4.76500, 120.0
4.80000, 143.0
4.83500, 127.0
4.87000, 113.0
4.90500, 111.0
4.94000, 98.0
4.97500, 120.0
5.01000, 115.0
5.04500, 117.0
5.08000, 117.0
5.11500, 108.0
5.15000, 103.0
5.18500, 111.0
5.22000, 114.0
5.25500, 96.0
5.29000, 96.0
5.32500, 104.0
5.36000, 103.0
5.39500, 102.0
5.43000, 105.0
5.46500, 83.0
5.50000, 107.0
5.53500, 99.0
5.57000, 95.0
5.60500, 96.0
5.64000, 85.0
5.67500, 85.0
5.71000, 72.0
5.74500, 80.0
5.78000, 94.0
5.81500, 87.0
5.85000, 87.0
5.88500, 85.0
5.92000, 77.0
5.95500, 87.0
5.99000, 64.0
6.02500, 79.0
6.06000, 84.0
6.09500, 81.0
6.13000, 74.0
6.16500, 76.0
6.20000, 71.0
6.23500, 73.0
6.27000, 76.0
6.30500, 68.0
6.34000, 72.0
6.37500, 66.0
6.41000, 60.0
6.44500, 77.0
6.48000, 65.0
6.51500, 69.0
6.55000, 70.0
6.58500, 67.0
6.62000, 58.0
6.65500, 58.0
6.69000, 71.0
6.72500, 61.0
6.76000, 60.0
6.79500, 71.0
6.83000, 59.0
6.86500, 54.0
6.90000, 65.0
6.93500, 56.0
6.97000, 52.0
7.00500, 53.0
7.04000, 56.0
7.07500, 50.0
7.11000, 61.0
7.14500, 45.0
7.18000, 56.0
7.21500, 49.0
7.25000, 56.0
7.28500, 64.0
7.32000, 49.0
7.35500, 49.0
7.39000, 46.0
7.42500, 46.0
7.46000, 58.0
7.49500, 59.0
7.53000, 42.0
7.56500, 37.0
7.60000, 48.0
7.63500, 39.0
7.67000, 44.0
7.70500, 43.0
7.74000, 55.0
7.77500, 46.0
7.81000, 41.0
7.84500, 50.0
7.88000, 53.0
7.91500, 45.0
7.95000, 51.0
7.98500, 41.0
8.02000, 57.0
8.05500, 38.0
8.09000, 40.0
8.12500, 33.0
8.16000, 39.0
8.19500, 30.0
8.23000, 30.0
8.26500, 33.0
8.30000, 30.0
8.33500, 28.0
8.37000, 29.0
8.40500, 31.0
8.44000, 37.0
8.47500, 32.0
8.51000, 37.0
8.54500, 36.0
8.58000, 16.0
8.61500, 26.0
8.65000, 29.0
8.68500, 31.0
8.72000, 26.0
8.75500, 33.0
8.79000, 26.0
8.82500, 28.0
8.86000, 30.0
8.89500, 28.0
8.93000, 31.0
8.96500, 29.0
9.00000, 27.0
9.03500, 25.0
9.07000, 35.0
9.10500, 16.0
9.14000, 23.0
9.17500, 15.0
9.21000, 18.0
9.24500, 25.0
9.28000, 25.0
9.31500, 22.0
9.35000, 14.0
9.38500, 12.0
9.42000, 19.0
9.45500, 13.0
9.49000, 20.0
9.52500, 13.0
9.56000, 10.0
9.59500, 16.0
9.63000, 11.0
9.66500, 9.0
9.70000, 11.0
9.73500, 10.0
9.77000, 6.0
9.80500, 9.0
9.84000, 6.0
9.87500, 5.0
9.91000, 5.0
9.94500, 5.0
9.98000, 9.0
10.01500, 2.0
10.05000, 3.0
10.08500, 0.0
10.12000, 1.0
10.13500, 2.0
#ENDOFDATA   :

File: C10_15keV_10.1.txt
#FORMAT      : EMSA/MAS Spectral Data File
#VERSION     : 1.0
#TITLE       : C10_15keV_10.1
#DATE        : 04-JUL-2024
#TIME        : 09:11
#OWNER       :
#NPOINTS     : 1024.0
#NCOLUMNS    : 1.0
#XUNITS      : keV
#YUNITS      : counts
#DATATYPE    : XY
#XPERCHAN    : 0.02
#OFFSET      : -0.2
#SIGNALTYPE  : EDS
#CHOFFSET    : 10.0
#LIVETIME    : 120.29
#REALTIME    : 122.715
#BEAMKV      : 15.0
#MAGCAM      : 950.0
#XTILTSTGE   : 0.0
#AZIMANGLE   : 0.0
#ELEVANGLE   : 25.5
#XPOSITION mm: 0.1488
#YPOSITION mm: -0.9268
#ZPOSITION mm: 14.7047
##OXINSTPT   : 2
##OXINSTSTROB: 69.68
##OXINSTELEMS: 6,8,16,29,7,15,9
##OXINSTLABEL: 6, 0.277, C K?1_2
##OXINSTLABEL: 8, 0.525, O K?1
##OXINSTLABEL: 16, 2.308, S K?1
##OXINSTLABEL: 16, 2.464, S K?1
##OXINSTLABEL: 29, 8.048, Cu K?1
##OXINSTLABEL: 29, 8.905, Cu K?1
##OXINSTLABEL: 29, 0.930, Cu L?1,2
##OXINSTLABEL: 29, 0.832, Cu L?
##OXINSTLABEL: 29, 0.811, Cu Ll
##OXINSTLABEL: 7, 0.392, N K?1_2
##OXINSTLABEL: 15, 2.014, P K?1
##OXINSTLABEL: 15, 2.139, P K?1
##OXINSTLABEL: 9, 0.677, F K?1_2
#SPECTRUM    : Spectral Data Starts Here
-0.20000, 0.0
-0.12000, 0.0
-0.04000, 518.0
0.04000, 10233.0
0.12000, 1152.0
0.20000, 552.0
0.28000, 1066.0
0.36000, 189.0
0.44000, 416.0
0.52000, 2847.0
0.60000, 491.0
0.68000, 251.0
0.76000, 323.0
0.84000, 386.0
0.92000, 436.0
1.00000, 517.0
1.08000, 586.0
1.16000, 571.0
1.24000, 641.0
1.32000, 669.0
1.40000, 680.0
1.48000, 780.0
1.56000, 869.0
1.64000, 3760.0
1.72000, 50521.0
1.80000, 24544.0
1.88000, 2005.0
1.96000, 355.0
2.04000, 358.0
2.12000, 314.0
2.20000, 578.0
2.28000, 3374.0
2.36000, 2481.0
2.44000, 902.0
2.52000, 451.0
2.60000, 275.0
2.68000, 237.0
2.76000, 241.0
2.84000, 261.0
2.92000, 234.0
3.00000, 216.0
3.08000, 239.0
3.16000, 225.0
3.24000, 234.0
3.32000, 225.0
3.40000, 222.0
3.48000, 270.0
3.56000, 231.0
3.64000, 187.0
3.72000, 216.0
3.80000, 178.0
3.88000, 189.0
3.96000, 185.0
4.04000, 186.0
4.12000, 182.0
4.20000, 165.0
4.28000, 161.0
4.36000, 164.0
4.44000, 165.0
4.52000, 155.0
4.60000, 148.0
4.68000, 136.0
4.76000, 153.0
4.84000, 145.0
4.92000, 141.0
5.00000, 132.0
5.08000, 150.0
5.16000, 132.0
5.24000, 117.0
5.32000, 115.0
5.40000, 125.0
5.48000, 132.0
5.56000, 117.0
5.64000, 125.0
5.72000, 101.0
5.80000, 100.0
5.88000, 100.0
5.96000, 98.0
6.04000, 103.0
6.12000, 94.0
6.20000, 96.0
6.28000, 104.0
6.36000, 85.0
6.44000, 94.0
6.52000, 79.0
6.60000, 88.0
6.68000, 83.0
6.76000, 78.0
6.84000, 77.0
6.92000, 82.0
7.00000, 70.0
7.08000, 75.0
7.16000, 65.0
7.24000, 72.0
7.32000, 66.0
7.40000, 61.0
7.48000, 66.0
7.56000, 56.0
7.64000, 56.0
7.72000, 66.0
7.80000, 55.0
7.88000, 58.0
7.96000, 62.0
8.04000, 51.0
8.12000, 55.0
8.20000, 56.0
8.28000, 57.0
8.36000, 62.0
8.44000, 56.0
8.52000, 51.0
8.60000, 41.0
8.68000, 43.0
8.76000, 52.0
8.84000, 50.0
8.92000, 46.0
9.00000, 43.0
9.08000, 53.0
9.16000, 40.0
9.24000, 44.0
9.32000, 43.0
9.40000, 38.0
9.48000, 29.0
9.56000, 36.0
9.64000, 39.0
9.72000, 34.0
9.80000, 38.0
9.88000, 27.0
9.96000, 33.0
10.04000, 29.0
10.12000, 27.0
10.20000, 32.0
10.28000, 29.0
10.36000, 35.0
10.44000, 23.0
10.52000, 26.0
10.60000, 32.0
10.68000, 23.0
10.76000, 21.0
10.84000, 26.0
10.92000, 16.0
11.00000, 24.0
11.08000, 22.0
11.16000, 22.0
11.24000, 22.0
11.32000, 18.0
11.40000, 18.0
11.48000, 18.0
11.56000, 17.0
11.64000, 20.0
11.72000, 15.0
11.80000, 16.0
11.88000, 14.0
11.96000, 10.0
12.04000, 12.0
12.12000, 12.0
12.20000, 10.0
12.28000, 13.0
12.36000, 14.0
12.44000, 13.0
12.52000, 11.0
12.60000, 7.0
12.68000, 8.0
12.76000, 8.0
12.84000, 9.0
12.92000, 8.0
13.00000, 11.0
13.08000, 7.0
13.16000, 8.0
13.24000, 6.0
13.32000, 7.0
13.40000, 13.0
13.48000, 8.0
13.56000, 7.0
13.64000, 5.0
13.72000, 3.0
13.80000, 7.0
13.88000, 4.0
13.96000, 7.0
14.04000, 3.0
14.12000, 5.0
14.20000, 2.0
14.28000, 3.0
14.36000, 6.0
14.44000, 2.0
14.52000, 2.0
14.60000, 1.0
14.68000, 1.0
14.76000, 1.0
14.84000, 2.0
14.92000, 4.0
15.00000, 0.0
15.08000, 1.0
15.16000, 0.0
15.24000, 1.0
15.32000, 0.0
15.40000, 0.0
15.48000, 0.0
15.56000, 0.0
15.64000, 0.0
15.72000, 0.0
15.80000, 0.0
15.88000, 0.0
15.96000, 0.0
16.04000, 0.0
16.12000, 0.0
16.20000, 0.0
16.28000, 0.0
16.36000, 0.0
16.44000, 0.0
16.52000, 0.0
16.60000, 0.0
16.68000, 0.0
16.76000, 0.0
16.84000, 0.0
16.92000, 0.0
17.00000, 0.0
17.08000, 0.0
17.16000, 0.0
17.24000, 0.0
17.32000, 0.0
17.40000, 0.0
17.48000, 0.0
17.56000, 0.0
17.64000, 0.0
17.72000, 0.0
17.80000, 0.0
17.88000, 0.0
17.96000, 0.0
18.04000, 0.0
18.12000, 0.0
18.20000, 0.0
18.28000, 0.0
18.36000, 0.0
18.44000, 0.0
18.52000, 0.0
18.60000, 0.0
18.68000, 0.0
18.76000, 0.0
18.84000, 0.0
18.92000, 0.0
19.00000, 0.0
19.08000, 0.0
19.16000, 0.0
19.24000, 0.0
19.32000, 0.0
19.40000, 0.0
19.48000, 0.0
19.56000, 0.0
19.64000, 0.0
19.72000, 0.0
19.80000, 0.0
19.88000, 0.0
19.96000, 0.0
20.04000, 0.0
20.12000, 0.0
20.20000, 0.0
20.26000, 0.0
#ENDOFDATA   :

File: N15_15keV_10_02.txt
#FORMAT      : EMSA/MAS Spectral Data File
#VERSION     : 1.0
#TITLE       : N15_15keV_10_02
#DATE        : 04-JUL-2024
#TIME        : 10:20
#OWNER       :
#NPOINTS     : 1024.0
#NCOLUMNS    : 1.0
#XUNITS      : keV
#YUNITS      : counts
#DATATYPE    : XY
#XPERCHAN    : 0.02
#OFFSET      : -0.2
#SIGNALTYPE  : EDS
#CHOFFSET    : 10.0
#LIVETIME    : 120.418
#REALTIME    : 122.716
#BEAMKV      : 15.0
#MAGCAM      : 700.0
#XTILTSTGE   : 0.0
#AZIMANGLE   : 0.0
#ELEVANGLE   : 25.5
#XPOSITION mm: 0.0643
#YPOSITION mm: 2.1078
#ZPOSITION mm: 14.6339
##OXINSTPT   : 2
##OXINSTSTROB: 69.69
##OXINSTELEMS: 6,8,16,29,7,15,9
##OXINSTLABEL: 6, 0.277, C K?1_2
##OXINSTLABEL: 8, 0.525, O K?1
##OXINSTLABEL: 16, 2.308, S K?1
##OXINSTLABEL: 16, 2.464, S K?1
##OXINSTLABEL: 29, 8.048, Cu K?1
##OXINSTLABEL: 29, 8.905, Cu K?1
##OXINSTLABEL: 29, 0.930, Cu L?1,2
##OXINSTLABEL: 29, 0.832, Cu L?
##OXINSTLABEL: 29, 0.811, Cu Ll
##OXINSTLABEL: 7, 0.392, N K?1_2
##OXINSTLABEL: 15, 2.014, P K?1
##OXINSTLABEL: 15, 2.139, P K?1
##OXINSTLABEL: 9, 0.677, F K?1_2
#SPECTRUM    : Spectral Data Starts Here
-0.20000, 0.0
-0.12000, 0.0
-0.04000, 546.0
0.04000, 10315.0
0.12000, 1408.0
0.20000, 629.0
0.28000, 461.0
0.36000, 124.0
0.44000, 244.0
0.52000, 1143.0
0.60000, 390.0
0.68000, 320.0
0.76000, 365.0
0.84000, 415.0
0.92000, 473.0
1.00000, 513.0
1.08000, 566.0
1.16000, 595.0
1.24000, 647.0
1.32000, 661.0
1.40000, 693.0
1.48000, 731.0
1.56000, 788.0
1.64000, 2988.0
1.72000, 39724.0
1.80000, 19544.0
1.88000, 1663.0
1.96000, 423.0
2.04000, 468.0
2.12000, 417.0
2.20000, 1017.0
2.28000, 7420.0
2.36000, 5362.0
2.44000, 1724.0
2.52000, 745.0
2.60000, 317.0
2.68000, 263.0
2.76000, 246.0
2.84000, 270.0
2.92000, 250.0
3.00000, 200.0
3.08000, 235.0
3.16000, 231.0
3.24000, 225.0
3.32000, 206.0
3.40000, 216.0
3.48000, 241.0
3.56000, 236.0
3.64000, 199.0
3.72000, 213.0
3.80000, 197.0
3.88000, 184.0
3.96000, 183.0
4.04000, 215.0
4.12000, 184.0
4.20000, 182.0
4.28000, 169.0
4.36000, 169.0
4.44000, 152.0
4.52000, 151.0
4.60000, 168.0
4.68000, 158.0
4.76000, 166.0
4.84000, 165.0
4.92000, 150.0
5.00000, 136.0
5.08000, 148.0
5.16000, 138.0
5.24000, 147.0
5.32000, 117.0
5.40000, 135.0
5.48000, 124.0
5.56000, 126.0
5.64000, 118.0
5.72000, 117.0
5.80000, 91.0
5.88000, 111.0
5.96000, 86.0
6.04000, 111.0
6.12000, 88.0
6.20000, 104.0
6.28000, 92.0
6.36000, 110.0
6.44000, 90.0
6.52000, 92.0
6.60000, 90.0
6.68000, 92.0
6.76000, 83.0
6.84000, 84.0
6.92000, 82.0
7.00000, 85.0
7.08000, 71.0
7.16000, 88.0
7.24000, 79.0
7.32000, 66.0
7.40000, 87.0
7.48000, 68.0
7.56000, 68.0
7.64000, 75.0
7.72000, 66.0
7.80000, 62.0
7.88000, 65.0
7.96000, 73.0
8.04000, 70.0
8.12000, 51.0
8.20000, 54.0
8.28000, 66.0
8.36000, 64.0
8.44000, 58.0
8.52000, 51.0
8.60000, 53.0
8.68000, 49.0
8.76000, 54.0
8.84000, 56.0
8.92000, 53.0
9.00000, 41.0
9.08000, 48.0
9.16000, 40.0
9.24000, 52.0
9.32000, 44.0
9.40000, 40.0
9.48000, 43.0
9.56000, 44.0
9.64000, 38.0
9.72000, 31.0
9.80000, 44.0
9.88000, 43.0
9.96000, 28.0
10.04000, 33.0
10.12000, 33.0
10.20000, 44.0
10.28000, 34.0
10.36000, 38.0
10.44000, 32.0
10.52000, 37.0
10.60000, 34.0
10.68000, 30.0
10.76000, 27.0
10.84000, 30.0
10.92000, 24.0
11.00000, 34.0
11.08000, 26.0
11.16000, 21.0
11.24000, 22.0
11.32000, 20.0
11.40000, 24.0
11.48000, 18.0
11.56000, 29.0
11.64000, 20.0
11.72000, 20.0
11.80000, 19.0
11.88000, 26.0
11.96000, 13.0
12.04000, 25.0
12.12000, 19.0
12.20000, 19.0
12.28000, 12.0
12.36000, 21.0
12.44000, 14.0
12.52000, 14.0
12.60000, 16.0
12.68000, 15.0
12.76000, 20.0
12.84000, 11.0
12.92000, 12.0
13.00000, 9.0
13.08000, 12.0
13.16000, 13.0
13.24000, 18.0
13.32000, 11.0
13.40000, 10.0
13.48000, 10.0
13.56000, 8.0
13.64000, 8.0
13.72000, 11.0
13.80000, 6.0
13.88000, 6.0
13.96000, 7.0
14.04000, 7.0
14.12000, 7.0
14.20000, 8.0
14.28000, 8.0
14.36000, 4.0
14.44000, 4.0
14.52000, 5.0
14.60000, 3.0
14.68000, 2.0
14.76000, 3.0
14.84000, 0.0
14.92000, 0.0
15.00000, 1.0
15.08000, 0.0
15.16000, 0.0
15.24000, 0.0
15.32000, 0.0
15.40000, 0.0
15.48000, 0.0
15.56000, 0.0
15.64000, 0.0
15.72000, 0.0
15.80000, 0.0
15.88000, 0.0
15.96000, 0.0
16.04000, 0.0
16.12000, 0.0
16.20000, 0.0
16.28000, 0.0
16.36000, 0.0
16.44000, 0.0
16.52000, 0.0
16.60000, 0.0
16.68000, 0.0
16.76000, 0.0
16.84000, 0.0
16.92000, 0.0
17.00000, 0.0
17.08000, 0.0
17.16000, 0.0
17.24000, 0.0
17.32000, 0.0
17.40000, 0.0
17.48000, 0.0
17.56000, 0.0
17.64000, 0.0
17.72000, 0.0
17.80000, 0.0
17.88000, 0.0
17.96000, 0.0
18.04000, 0.0
18.12000, 0.0
18.20000, 0.0
18.28000, 0.0
18.36000, 0.0
18.44000, 0.0
18.52000, 0.0
18.60000, 0.0
18.68000, 0.0
18.76000, 0.0
18.84000, 0.0
18.92000, 0.0
19.00000, 0.0
19.08000, 0.0
19.16000, 0.0
19.24000, 0.0
19.32000, 0.0
19.40000, 0.0
19.48000, 0.0
19.56000, 0.0
19.64000, 0.0
19.72000, 0.0
19.80000, 0.0
19.88000, 0.0
19.96000, 0.0
20.04000, 0.0
20.12000, 0.0
20.20000, 0.0
20.26000, 0.0
#ENDOFDATA   :

File: Spectrum 6.txt
#FORMAT      : EMSA/MAS Spectral Data File
#VERSION     : 1.0
#TITLE       : Spectrum 6
#DATE        : 11-JUL-2024
#TIME        : 15:36
#OWNER       :
#NPOINTS     : 1024.0
#NCOLUMNS    : 1.0
#XUNITS      : keV
#YUNITS      : counts
#DATATYPE    : XY
#XPERCHAN    : 0.02
#OFFSET      : -0.2
#SIGNALTYPE  : EDS
#CHOFFSET    : 10.0
#LIVETIME    : 60.021
#REALTIME    : 60.7907
#BEAMKV      : 15.0
#MAGCAM      : 450.0
#XTILTSTGE   : 0.0
#AZIMANGLE   : 0.0
#ELEVANGLE   : 25.5
#XPOSITION mm: -2.3380
#YPOSITION mm: -0.2523
#ZPOSITION mm: 13.9967
##OXINSTPT   : 2
##OXINSTSTROB: 69.73
##OXINSTELEMS: 6,8,29,79,78,14
##OXINSTLABEL: 6, 0.277, C K?1_2
##OXINSTLABEL: 8, 0.525, O K?1
##OXINSTLABEL: 29, 8.048, Cu K?1
##OXINSTLABEL: 29, 8.905, Cu K?1
##OXINSTLABEL: 29, 0.930, Cu L?1,2
##OXINSTLABEL: 29, 0.832, Cu L?
##OXINSTLABEL: 29, 0.811, Cu Ll
##OXINSTLABEL: 79, 9.713, Au L?1
##OXINSTLABEL: 79, 11.443, Au L?1
##OXINSTLABEL: 79, 11.585, Au L?2
##OXINSTLABEL: 79, 10.308, Au L?
##OXINSTLABEL: 79, 13.382, Au L?1
##OXINSTLABEL: 79, 13.710, Au L?2
##OXINSTLABEL: 79, 8.494, Au Ll
##OXINSTLABEL: 79, 2.123, Au M?1
##OXINSTLABEL: 79, 2.410, Au M?
##OXINSTLABEL: 79, 1.648, Au M?2
##OXINSTLABEL: 79, 0.265, Au N4-N6
##OXINSTLABEL: 79, 0.251, Au N5-N6,7
##OXINSTLABEL: 78, 9.442, Pt L?1
##OXINSTLABEL: 78, 11.071, Pt L?1
##OXINSTLABEL: 78, 11.251, Pt L?2
##OXINSTLABEL: 78, 9.975, Pt L?
##OXINSTLABEL: 78, 12.942, Pt L?1
##OXINSTLABEL: 78, 13.271, Pt L?2
##OXINSTLABEL: 78, 8.268, Pt Ll
##OXINSTLABEL: 78, 2.050, Pt M?1
##OXINSTLABEL: 78, 2.331, Pt M?
##OXINSTLABEL: 78, 1.592, Pt M?2
##OXINSTLABEL: 78, 0.258, Pt N4-N6
##OXINSTLABEL: 78, 0.244, Pt N5-N6,7
##OXINSTLABEL: 14, 1.740, Si K?1
#SPECTRUM    : Spectral Data Starts Here
-0.20000, 0.0
-0.12000, 0.0
-0.04000, 230.0
0.04000, 5056.0
0.12000, 596.0
0.20000, 206.0
0.28000, 102.0
0.36000, 34.0
0.44000, 47.0
0.52000, 171.0
0.60000, 111.0
0.68000, 98.0
0.76000, 97.0
0.84000, 114.0
0.92000, 128.0
1.00000, 154.0
1.08000, 161.0
1.16000, 187.0
1.24000, 175.0
1.32000, 180.0
1.40000, 191.0
1.48000, 227.0
1.56000, 211.0
1.64000, 716.0
1.72000, 8691.0
1.80000, 4262.0
1.88000, 431.0
1.96000, 146.0
2.04000, 181.0
2.12000, 146.0
2.20000, 411.0
2.28000, 3479.0
2.36000, 2587.0
2.44000, 794.0
2.52000, 319.0
2.60000, 130.0
2.68000, 85.0
2.76000, 72.0
2.84000, 85.0
2.92000, 71.0
3.00000, 74.0
3.08000, 64.0
3.16000, 58.0
3.24000, 68.0
3.32000, 61.0
3.40000, 67.0
3.48000, 75.0
3.56000, 67.0
3.64000, 58.0
3.72000, 66.0
3.80000, 62.0
3.88000, 48.0
3.96000, 60.0
4.04000, 61.0
4.12000, 50.0
4.20000, 55.0
4.28000, 50.0
4.36000, 46.0
4.44000, 52.0
4.52000, 55.0
4.60000, 45.0
4.68000, 45.0
4.76000, 49.0
4.84000, 47.0
4.92000, 47.0
5.00000, 49.0
5.08000, 48.0
5.16000, 48.0
5.24000, 40.0
5.32000, 42.0
5.40000, 34.0
5.48000, 43.0
5.56000, 36.0
5.64000, 38.0
5.72000, 32.0
5.80000, 38.0
5.88000, 37.0
5.96000, 35.0
6.04000, 33.0
6.12000, 33.0
6.20000, 35.0
6.28000, 30.0
6.36000, 27.0
6.44000, 32.0
6.52000, 37.0
6.60000, 23.0
6.68000, 27.0
6.76000, 34.0
6.84000, 25.0
6.92000, 20.0
7.00000, 29.0
7.08000, 23.0
7.16000, 29.0
7.24000, 18.0
7.32000, 28.0
7.40000, 28.0
7.48000, 22.0
7.56000, 24.0
7.64000, 24.0
7.72000, 19.0
7.80000, 18.0
7.88000, 20.0
7.96000, 20.0
8.04000, 16.0
8.12000, 21.0
8.20000, 18.0
8.28000, 21.0
8.36000, 16.0
8.44000, 23.0
8.52000, 17.0
8.60000, 20.0
8.68000, 17.0
8.76000, 15.0
8.84000, 16.0
8.92000, 21.0
9.00000, 17.0
9.08000, 18.0
9.16000, 14.0
9.24000, 15.0
9.32000, 13.0
9.40000, 17.0
9.48000, 15.0
9.56000, 11.0
9.64000, 16.0
9.72000, 14.0
9.80000, 12.0
9.88000, 19.0
9.96000, 12.0
10.04000, 13.0
10.12000, 8.0
10.20000, 11.0
10.28000, 13.0
10.36000, 9.0
10.44000, 13.0
10.52000, 9.0
10.60000, 14.0
10.68000, 10.0
10.76000, 8.0
10.84000, 10.0
10.92000, 7.0
11.00000, 10.0
11.08000, 4.0
11.16000, 10.0
11.24000, 5.0
11.32000, 10.0
11.40000, 4.0
11.48000, 7.0
11.56000, 7.0
11.64000, 8.0
11.72000, 8.0
11.80000, 8.0
11.88000, 8.0
11.96000, 5.0
12.04000, 6.0
12.12000, 6.0
12.20000, 8.0
12.28000, 11.0
12.36000, 6.0
12.44000, 6.0
12.52000, 5.0
12.60000, 5.0
12.68000, 2.0
12.76000, 6.0
12.84000, 8.0
12.92000, 6.0
13.00000, 3.0
13.08000, 5.0
13.16000, 4.0
13.24000, 3.0
13.32000, 3.0
13.40000, 1.0
13.48000, 2.0
13.56000, 2.0
13.64000, 1.0
13.72000, 4.0
13.80000, 6.0
13.88000, 2.0
13.96000, 3.0
14.04000, 2.0
14.12000, 2.0
14.20000, 2.0
14.28000, 5.0
14.36000, 1.0
14.44000, 2.0
14.52000, 2.0
14.60000, 1.0
14.68000, 0.0
14.76000, 0.0
14.84000, 1.0
14.92000, 1.0
15.00000, 1.0
15.08000, 0.0
15.16000, 0.0
15.24000, 0.0
15.32000, 0.0
15.40000, 0.0
15.48000, 0.0
15.56000, 0.0
15.64000, 0.0
15.72000, 0.0
15.80000, 0.0
15.88000, 0.0
15.96000, 0.0
16.04000, 0.0
16.12000, 0.0
16.20000, 0.0
16.28000, 0.0
16.36000, 0.0
16.44000, 0.0
16.52000, 0.0
16.60000, 0.0
16.68000, 0.0
16.76000, 0.0
16.84000, 0.0
16.92000, 0.0
17.00000, 0.0
17.08000, 0.0
17.16000, 0.0
17.24000, 0.0
17.32000, 0.0
17.40000, 0.0
17.48000, 0.0
17.56000, 0.0
17.64000, 0.0
17.72000, 0.0
17.80000, 0.0
17.88000, 0.0
17.96000, 0.0
18.04000, 0.0
18.12000, 0.0
18.20000, 0.0
18.28000, 0.0
18.36000, 0.0
18.44000, 0.0
18.52000, 0.0
18.60000, 0.0
18.68000, 0.0
18.76000, 0.0
18.84000, 0.0
18.92000, 0.0
19.00000, 0.0
19.08000, 0.0
19.16000, 0.0
19.24000, 0.0
19.32000, 0.0
19.40000, 0.0
19.48000, 0.0
19.56000, 0.0
19.64000, 0.0
19.72000, 0.0
19.80000, 0.0
19.88000, 0.0
19.96000, 0.0
20.04000, 0.0
20.12000, 0.0
20.20000, 0.0
20.26000, 0.0
#ENDOFDATA   :