Folder: Sommarjobb-2024/Measurements 100724

File: B15_10k_100724_A2_1.txt
#FORMAT      : EMSA/MAS Spectral Data File
#VERSION     : 1.0
#TITLE       : B15_10k_100724_A2_1
#DATE        : 10-JUL-2024
#TIME        : 13:31
#OWNER       :
#NPOINTS     : 2048.0
#NCOLUMNS    : 1.0
#XUNITS      : keV
#YUNITS      : counts
#DATATYPE    : XY
#XPERCHAN    : 0.005
#OFFSET      : -0.1
#SIGNALTYPE  : EDS
#CHOFFSET    : 20.0
#LIVETIME    : 60.084
#REALTIME    : 60.8409
#BEAMKV      : 10.0
#MAGCAM      : 2300.0
#XTILTSTGE   : 0.0
#AZIMANGLE   : 0.0
#ELEVANGLE   : 25.5
#XPOSITION mm: -0.9568
#YPOSITION mm: -1.0523
#ZPOSITION mm: 14.0699
##OXINSTPT   : 2
##OXINSTSTROB: 69.66
##OXINSTELEMS: 8,14,16,42
##OXINSTLABEL: 8, 0.525, O K?1
##OXINSTLABEL: 14, 1.740, Si K?1
##OXINSTLABEL: 16, 2.308, S K?1
##OXINSTLABEL: 16, 2.464, S K?1
##OXINSTLABEL: 42, 0.193, Mo M?
##OXINSTLABEL: 42, 2.016, Mo Ll
##OXINSTLABEL: 42, 2.120, Mo L?
##OXINSTLABEL: 42, 2.293, Mo L?1
##OXINSTLABEL: 42, 2.395, Mo L?1
##OXINSTLABEL: 42, 2.518, Mo L?2,15
##OXINSTLABEL: 42, 2.624, Mo L?1
##OXINSTLABEL: 42, 2.831, Mo L?2,3
#SPECTRUM    : Spectral Data Starts Here
-0.10000, 0.0
-0.06500, 6.0
-0.03000, 97.0
0.00500, 662.0
0.04000, 1317.0
0.07500, 842.0
0.11000, 194.0
0.14500, 38.0
0.18000, 36.0
0.21500, 83.0
0.25000, 246.0
0.28500, 291.0
0.32000, 119.0
0.35500, 31.0
0.39000, 32.0
0.42500, 40.0
0.46000, 111.0
0.49500, 390.0
0.53000, 525.0
0.56500, 256.0
0.60000, 55.0
0.63500, 12.0
0.67000, 21.0
0.70500, 21.0
0.74000, 27.0
0.77500, 26.0
0.81000, 25.0
0.84500, 28.0
0.88000, 25.0
0.91500, 29.0
0.95000, 30.0
0.98500, 32.0
1.02000, 43.0
1.05500, 31.0
1.09000, 34.0
1.12500, 32.0
1.16000, 43.0
1.19500, 30.0
1.23000, 33.0
1.26500, 30.0
1.30000, 35.0
1.33500, 38.0
1.37000, 30.0
1.40500, 31.0
1.44000, 39.0
1.47500, 39.0
1.51000, 39.0
1.54500, 41.0
1.58000, 44.0
1.61500, 59.0
1.65000, 200.0
1.68500, 846.0
1.72000, 1876.0
1.75500, 2066.0
1.79000, 1190.0
1.82500, 398.0
1.86000, 119.0
1.89500, 51.0
1.93000, 30.0
1.96500, 16.0
2.00000, 17.0
2.03500, 25.0
2.07000, 16.0
2.10500, 14.0
2.14000, 15.0
2.17500, 15.0
2.21000, 24.0
2.24500, 38.0
2.28000, 72.0
2.31500, 85.0
2.35000, 67.0
2.38500, 40.0
2.42000, 31.0
2.45500, 22.0
2.49000, 20.0
2.52500, 19.0
2.56000, 16.0
2.59500, 13.0
2.63000, 15.0
2.66500, 15.0
2.70000, 13.0
2.73500, 9.0
2.77000, 16.0
2.80500, 7.0
2.84000, 15.0
2.87500, 9.0
2.91000, 16.0
2.94500, 9.0
2.98000, 13.0
3.01500, 8.0
3.05000, 13.0
3.08500, 12.0
3.12000, 13.0
3.15500, 9.0
3.19000, 6.0
3.22500, 13.0
3.26000, 10.0
3.29500, 8.0
3.33000, 8.0
3.36500, 10.0
3.40000, 8.0
3.43500, 6.0
3.47000, 10.0
3.50500, 6.0
3.54000, 9.0
3.57500, 10.0
3.61000, 13.0
3.64500, 12.0
3.68000, 11.0
3.71500, 7.0
3.75000, 4.0
3.78500, 9.0
3.82000, 5.0
3.85500, 10.0
3.89000, 8.0
3.92500, 6.0
3.96000, 8.0
3.99500, 16.0
4.03000, 1.0
4.06500, 8.0
4.10000, 8.0
4.13500, 5.0
4.17000, 6.0
4.20500, 4.0
4.24000, 7.0
4.27500, 5.0
4.31000, 8.0
4.34500, 8.0
4.38000, 5.0
4.41500, 9.0
4.45000, 8.0
4.48500, 6.0
4.52000, 9.0
4.55500, 5.0
4.59000, 9.0
4.62500, 5.0
4.66000, 5.0
4.69500, 5.0
4.73000, 8.0
4.76500, 5.0
4.80000, 4.0
4.83500, 7.0
4.87000, 5.0
4.90500, 5.0
4.94000, 6.0
4.97500, 3.0
5.01000, 9.0
5.04500, 7.0
5.08000, 1.0
5.11500, 3.0
5.15000, 4.0
5.18500, 5.0
5.22000, 2.0
5.25500, 6.0
5.29000, 7.0
5.32500, 3.0
5.36000, 4.0
5.39500, 4.0
5.43000, 5.0
5.46500, 3.0
5.50000, 4.0
5.53500, 3.0
5.57000, 4.0
5.60500, 2.0
5.64000, 2.0
5.67500, 0.0
5.71000, 4.0
5.74500, 6.0
5.78000, 4.0
5.81500, 3.0
5.85000, 3.0
5.88500, 4.0
5.92000, 2.0
5.95500, 3.0
5.99000, 3.0
6.02500, 2.0
6.06000, 7.0
6.09500, 4.0
6.13000, 3.0
6.16500, 4.0
6.20000, 4.0
6.23500, 4.0
6.27000, 4.0
6.30500, 4.0
6.34000, 4.0
6.37500, 3.0
6.41000, 5.0
6.44500, 2.0
6.48000, 5.0
6.51500, 1.0
6.55000, 2.0
6.58500, 4.0
6.62000, 1.0
6.65500, 2.0
6.69000, 0.0
6.72500, 3.0
6.76000, 4.0
6.79500, 2.0
6.83000, 3.0
6.86500, 1.0
6.90000, 1.0
6.93500, 2.0
6.97000, 3.0
7.00500, 3.0
7.04000, 1.0
7.07500, 2.0
7.11000, 1.0
7.14500, 3.0
7.18000, 2.0
7.21500, 1.0
7.25000, 1.0
7.28500, 2.0
7.32000, 3.0
7.35500, 3.0
7.39000, 2.0
7.42500, 0.0
7.46000, 3.0
7.49500, 1.0
7.53000, 3.0
7.56500, 2.0
7.60000, 0.0
7.63500, 2.0
7.67000, 1.0
7.70500, 1.0
7.74000, 2.0
7.77500, 2.0
7.81000, 4.0
7.84500, 3.0
7.88000, 0.0
7.91500, 3.0
7.95000, 0.0
7.98500, 0.0
8.02000, 2.0
8.05500, 0.0
8.09000, 2.0
8.12500, 1.0
8.16000, 0.0
8.19500, 1.0
8.23000, 0.0
8.26500, 0.0
8.30000, 1.0
8.33500, 0.0
8.37000, 2.0
8.40500, 0.0
8.44000, 1.0
8.47500, 0.0
8.51000, 2.0
8.54500, 0.0
8.58000, 1.0
8.61500, 0.0
8.65000, 0.0
8.68500, 3.0
8.72000, 0.0
8.75500, 1.0
8.79000, 1.0
8.82500, 0.0
8.86000, 1.0
8.89500, 1.0
8.93000, 0.0
8.96500, 0.0
9.00000, 1.0
9.03500, 0.0
9.07000, 0.0
9.10500, 1.0
9.14000, 1.0
9.17500, 1.0
9.21000, 0.0
9.24500, 0.0
9.28000, 2.0
9.31500, 1.0
9.35000, 0.0
9.38500, 0.0
9.42000, 1.0
9.45500, 0.0
9.49000, 0.0
9.52500, 0.0
9.56000, 1.0
9.59500, 0.0
9.63000, 0.0
9.66500, 1.0
9.70000, 0.0
9.73500, 0.0
9.77000, 0.0
9.80500, 0.0
9.84000, 0.0
9.87500, 0.0
9.91000, 0.0
9.94500, 0.0
9.98000, 0.0
10.01500, 0.0
10.05000, 0.0
10.08500, 0.0
10.12000, 0.0
10.13500, 0.0
#ENDOFDATA   :