Folder: Sommarjobb-2024/Measurements 110724

File: A10_15k_110724_3.txt
#FORMAT      : EMSA/MAS Spectral Data File
#VERSION     : 1.0
#TITLE       : A10_15k_110724_3
#DATE        : 11-JUL-2024
#TIME        : 15:16
#OWNER       :
#NPOINTS     : 1024.0
#NCOLUMNS    : 1.0
#XUNITS      : keV
#YUNITS      : counts
#DATATYPE    : XY
#XPERCHAN    : 0.02
#OFFSET      : -0.2
#SIGNALTYPE  : EDS
#CHOFFSET    : 10.0
#LIVETIME    : 60.0174
#REALTIME    : 61.5087
#BEAMKV      : 15.0
#MAGCAM      : 2500.0
#XTILTSTGE   : 0.0
#AZIMANGLE   : 0.0
#ELEVANGLE   : 25.5
#XPOSITION mm: 0.3005
#YPOSITION mm: -1.3995
#ZPOSITION mm: 13.9967
##OXINSTPT   : 4
##OXINSTSTROB: 47.12
##OXINSTELEMS: 6,8,29,79,78,14
##OXINSTLABEL: 6, 0.277, C K?1_2
##OXINSTLABEL: 8, 0.525, O K?1
##OXINSTLABEL: 29, 8.048, Cu K?1
##OXINSTLABEL: 29, 8.905, Cu K?1
##OXINSTLABEL: 29, 0.930, Cu L?1,2
##OXINSTLABEL: 29, 0.832, Cu L?
##OXINSTLABEL: 29, 0.811, Cu Ll
##OXINSTLABEL: 79, 9.713, Au L?1
##OXINSTLABEL: 79, 11.443, Au L?1
##OXINSTLABEL: 79, 11.585, Au L?2
##OXINSTLABEL: 79, 10.308, Au L?
##OXINSTLABEL: 79, 13.382, Au L?1
##OXINSTLABEL: 79, 13.710, Au L?2
##OXINSTLABEL: 79, 8.494, Au Ll
##OXINSTLABEL: 79, 2.123, Au M?1
##OXINSTLABEL: 79, 2.410, Au M?
##OXINSTLABEL: 79, 1.648, Au M?2
##OXINSTLABEL: 79, 0.265, Au N4-N6
##OXINSTLABEL: 79, 0.251, Au N5-N6,7
##OXINSTLABEL: 78, 9.442, Pt L?1
##OXINSTLABEL: 78, 11.071, Pt L?1
##OXINSTLABEL: 78, 11.251, Pt L?2
##OXINSTLABEL: 78, 9.975, Pt L?
##OXINSTLABEL: 78, 12.942, Pt L?1
##OXINSTLABEL: 78, 13.271, Pt L?2
##OXINSTLABEL: 78, 8.268, Pt Ll
##OXINSTLABEL: 78, 2.050, Pt M?1
##OXINSTLABEL: 78, 2.331, Pt M?
##OXINSTLABEL: 78, 1.592, Pt M?2
##OXINSTLABEL: 78, 0.258, Pt N4-N6
##OXINSTLABEL: 78, 0.244, Pt N5-N6,7
##OXINSTLABEL: 14, 1.740, Si K?1
#SPECTRUM    : Spectral Data Starts Here
-0.20000, 0.0
-0.12000, 0.0
-0.04000, 316.0
0.04000, 5956.0
0.12000, 363.0
0.20000, 210.0
0.28000, 149.0
0.36000, 32.0
0.44000, 64.0
0.52000, 176.0
0.60000, 218.0
0.68000, 129.0
0.76000, 140.0
0.84000, 161.0
0.92000, 185.0
1.00000, 196.0
1.08000, 227.0
1.16000, 236.0
1.24000, 231.0
1.32000, 242.0
1.40000, 251.0
1.48000, 262.0
1.56000, 245.0
1.64000, 263.0
1.72000, 1132.0
1.80000, 603.0
1.88000, 254.0
1.96000, 293.0
2.04000, 428.0
2.12000, 322.0
2.20000, 699.0
2.28000, 10819.0
2.36000, 6892.0
2.44000, 2159.0
2.52000, 685.0
2.60000, 194.0
2.68000, 100.0
2.76000, 110.0
2.84000, 124.0
2.92000, 98.0
3.00000, 96.0
3.08000, 95.0
3.16000, 103.0
3.24000, 91.0
3.32000, 91.0
3.40000, 88.0
3.48000, 98.0
3.56000, 91.0
3.64000, 90.0
3.72000, 89.0
3.80000, 98.0
3.88000, 93.0
3.96000, 89.0
4.04000, 77.0
4.12000, 88.0
4.20000, 97.0
4.28000, 75.0
4.36000, 82.0
4.44000, 85.0
4.52000, 79.0
4.60000, 97.0
4.68000, 81.0
4.76000, 80.0
4.84000, 72.0
4.92000, 80.0
5.00000, 59.0
5.08000, 58.0
5.16000, 72.0
5.24000, 82.0
5.32000, 59.0
5.40000, 58.0
5.48000, 50.0
5.56000, 62.0
5.64000, 64.0
5.72000, 63.0
5.80000, 61.0
5.88000, 52.0
5.96000, 50.0
6.04000, 53.0
6.12000, 58.0
6.20000, 63.0
6.28000, 49.0
6.36000, 59.0
6.44000, 50.0
6.52000, 55.0
6.60000, 40.0
6.68000, 52.0
6.76000, 48.0
6.84000, 39.0
6.92000, 48.0
7.00000, 51.0
7.08000, 41.0
7.16000, 43.0
7.24000, 38.0
7.32000, 39.0
7.40000, 47.0
7.48000, 47.0
7.56000, 40.0
7.64000, 35.0
7.72000, 41.0
7.80000, 35.0
7.88000, 44.0
7.96000, 28.0
8.04000, 29.0
8.12000, 37.0
8.20000, 31.0
8.28000, 37.0
8.36000, 25.0
8.44000, 28.0
8.52000, 28.0
8.60000, 31.0
8.68000, 25.0
8.76000, 30.0
8.84000, 36.0
8.92000, 21.0
9.00000, 30.0
9.08000, 21.0
9.16000, 32.0
9.24000, 30.0
9.32000, 22.0
9.40000, 22.0
9.48000, 26.0
9.56000, 27.0
9.64000, 20.0
9.72000, 18.0
9.80000, 26.0
9.88000, 22.0
9.96000, 21.0
10.04000, 16.0
10.12000, 24.0
10.20000, 23.0
10.28000, 11.0
10.36000, 16.0
10.44000, 21.0
10.52000, 18.0
10.60000, 19.0
10.68000, 20.0
10.76000, 18.0
10.84000, 19.0
10.92000, 19.0
11.00000, 13.0
11.08000, 13.0
11.16000, 12.0
11.24000, 14.0
11.32000, 14.0
11.40000, 14.0
11.48000, 18.0
11.56000, 12.0
11.64000, 18.0
11.72000, 11.0
11.80000, 10.0
11.88000, 6.0
11.96000, 11.0
12.04000, 10.0
12.12000, 12.0
12.20000, 14.0
12.28000, 7.0
12.36000, 10.0
12.44000, 8.0
12.52000, 9.0
12.60000, 11.0
12.68000, 7.0
12.76000, 5.0
12.84000, 6.0
12.92000, 6.0
13.00000, 8.0
13.08000, 6.0
13.16000, 5.0
13.24000, 5.0
13.32000, 5.0
13.40000, 5.0
13.48000, 5.0
13.56000, 3.0
13.64000, 3.0
13.72000, 4.0
13.80000, 4.0
13.88000, 4.0
13.96000, 2.0
14.04000, 5.0
14.12000, 2.0
14.20000, 2.0
14.28000, 2.0
14.36000, 2.0
14.44000, 2.0
14.52000, 1.0
14.60000, 1.0
14.68000, 2.0
14.76000, 3.0
14.84000, 1.0
14.92000, 0.0
15.00000, 0.0
15.08000, 0.0
15.16000, 0.0
15.24000, 0.0
15.32000, 0.0
15.40000, 0.0
15.48000, 0.0
15.56000, 0.0
15.64000, 0.0
15.72000, 0.0
15.80000, 0.0
15.88000, 0.0
15.96000, 0.0
16.04000, 0.0
16.12000, 0.0
16.20000, 0.0
16.28000, 0.0
16.36000, 0.0
16.44000, 0.0
16.52000, 0.0
16.60000, 0.0
16.68000, 0.0
16.76000, 0.0
16.84000, 0.0
16.92000, 0.0
17.00000, 0.0
17.08000, 0.0
17.16000, 0.0
17.24000, 0.0
17.32000, 0.0
17.40000, 0.0
17.48000, 0.0
17.56000, 0.0
17.64000, 0.0
17.72000, 0.0
17.80000, 0.0
17.88000, 0.0
17.96000, 0.0
18.04000, 0.0
18.12000, 0.0
18.20000, 0.0
18.28000, 0.0
18.36000, 0.0
18.44000, 0.0
18.52000, 0.0
18.60000, 0.0
18.68000, 0.0
18.76000, 0.0
18.84000, 0.0
18.92000, 0.0
19.00000, 0.0
19.08000, 0.0
19.16000, 0.0
19.24000, 0.0
19.32000, 0.0
19.40000, 0.0
19.48000, 0.0
19.56000, 0.0
19.64000, 0.0
19.72000, 0.0
19.80000, 0.0
19.88000, 0.0
19.96000, 0.0
20.04000, 0.0
20.12000, 0.0
20.20000, 0.0
20.26000, 0.0
#ENDOFDATA   :

File: G15_15K_110724.txt
#FORMAT      : EMSA/MAS Spectral Data File
#VERSION     : 1.0
#TITLE       : G15_15K_110724
#DATE        : 11-JUL-2024
#TIME        : 15:29
#OWNER       :
#NPOINTS     : 1024.0
#NCOLUMNS    : 1.0
#XUNITS      : keV
#YUNITS      : counts
#DATATYPE    : XY
#XPERCHAN    : 0.02
#OFFSET      : -0.2
#SIGNALTYPE  : EDS
#CHOFFSET    : 10.0
#LIVETIME    : 60.084
#REALTIME    : 60.9013
#BEAMKV      : 15.0
#MAGCAM      : 450.0
#XTILTSTGE   : 0.0
#AZIMANGLE   : 0.0
#ELEVANGLE   : 25.5
#XPOSITION mm: -2.2795
#YPOSITION mm: 0.1503
#ZPOSITION mm: 13.9967
##OXINSTPT   : 2
##OXINSTSTROB: 69.72
##OXINSTELEMS: 6,8,29,79,78,14
##OXINSTLABEL: 6, 0.277, C K?1_2
##OXINSTLABEL: 8, 0.525, O K?1
##OXINSTLABEL: 29, 8.048, Cu K?1
##OXINSTLABEL: 29, 8.905, Cu K?1
##OXINSTLABEL: 29, 0.930, Cu L?1,2
##OXINSTLABEL: 29, 0.832, Cu L?
##OXINSTLABEL: 29, 0.811, Cu Ll
##OXINSTLABEL: 79, 9.713, Au L?1
##OXINSTLABEL: 79, 11.443, Au L?1
##OXINSTLABEL: 79, 11.585, Au L?2
##OXINSTLABEL: 79, 10.308, Au L?
##OXINSTLABEL: 79, 13.382, Au L?1
##OXINSTLABEL: 79, 13.710, Au L?2
##OXINSTLABEL: 79, 8.494, Au Ll
##OXINSTLABEL: 79, 2.123, Au M?1
##OXINSTLABEL: 79, 2.410, Au M?
##OXINSTLABEL: 79, 1.648, Au M?2
##OXINSTLABEL: 79, 0.265, Au N4-N6
##OXINSTLABEL: 79, 0.251, Au N5-N6,7
##OXINSTLABEL: 78, 9.442, Pt L?1
##OXINSTLABEL: 78, 11.071, Pt L?1
##OXINSTLABEL: 78, 11.251, Pt L?2
##OXINSTLABEL: 78, 9.975, Pt L?
##OXINSTLABEL: 78, 12.942, Pt L?1
##OXINSTLABEL: 78, 13.271, Pt L?2
##OXINSTLABEL: 78, 8.268, Pt Ll
##OXINSTLABEL: 78, 2.050, Pt M?1
##OXINSTLABEL: 78, 2.331, Pt M?
##OXINSTLABEL: 78, 1.592, Pt M?2
##OXINSTLABEL: 78, 0.258, Pt N4-N6
##OXINSTLABEL: 78, 0.244, Pt N5-N6,7
##OXINSTLABEL: 14, 1.740, Si K?1
#SPECTRUM    : Spectral Data Starts Here
-0.20000, 0.0
-0.12000, 0.0
-0.04000, 271.0
0.04000, 5198.0
0.12000, 535.0
0.20000, 164.0
0.28000, 222.0
0.36000, 53.0
0.44000, 92.0
0.52000, 626.0
0.60000, 126.0
0.68000, 74.0
0.76000, 85.0
0.84000, 100.0
0.92000, 134.0
1.00000, 148.0
1.08000, 146.0
1.16000, 159.0
1.24000, 180.0
1.32000, 194.0
1.40000, 190.0
1.48000, 206.0
1.56000, 254.0
1.64000, 1072.0
1.72000, 13769.0
1.80000, 6807.0
1.88000, 552.0
1.96000, 114.0
2.04000, 110.0
2.12000, 96.0
2.20000, 177.0
2.28000, 1086.0
2.36000, 806.0
2.44000, 279.0
2.52000, 143.0
2.60000, 86.0
2.68000, 64.0
2.76000, 72.0
2.84000, 55.0
2.92000, 57.0
3.00000, 63.0
3.08000, 64.0
3.16000, 70.0
3.24000, 64.0
3.32000, 60.0
3.40000, 54.0
3.48000, 62.0
3.56000, 70.0
3.64000, 58.0
3.72000, 52.0
3.80000, 53.0
3.88000, 59.0
3.96000, 53.0
4.04000, 55.0
4.12000, 50.0
4.20000, 43.0
4.28000, 42.0
4.36000, 42.0
4.44000, 44.0
4.52000, 39.0
4.60000, 38.0
4.68000, 45.0
4.76000, 47.0
4.84000, 41.0
4.92000, 40.0
5.00000, 35.0
5.08000, 30.0
5.16000, 41.0
5.24000, 33.0
5.32000, 36.0
5.40000, 37.0
5.48000, 31.0
5.56000, 32.0
5.64000, 36.0
5.72000, 31.0
5.80000, 25.0
5.88000, 33.0
5.96000, 27.0
6.04000, 27.0
6.12000, 26.0
6.20000, 22.0
6.28000, 27.0
6.36000, 27.0
6.44000, 22.0
6.52000, 17.0
6.60000, 24.0
6.68000, 30.0
6.76000, 20.0
6.84000, 24.0
6.92000, 22.0
7.00000, 19.0
7.08000, 14.0
7.16000, 19.0
7.24000, 27.0
7.32000, 15.0
7.40000, 17.0
7.48000, 15.0
7.56000, 19.0
7.64000, 18.0
7.72000, 20.0
7.80000, 13.0
7.88000, 14.0
7.96000, 12.0
8.04000, 16.0
8.12000, 20.0
8.20000, 16.0
8.28000, 18.0
8.36000, 17.0
8.44000, 14.0
8.52000, 13.0
8.60000, 11.0
8.68000, 13.0
8.76000, 17.0
8.84000, 11.0
8.92000, 12.0
9.00000, 12.0
9.08000, 8.0
9.16000, 10.0
9.24000, 9.0
9.32000, 13.0
9.40000, 10.0
9.48000, 10.0
9.56000, 10.0
9.64000, 12.0
9.72000, 12.0
9.80000, 6.0
9.88000, 9.0
9.96000, 12.0
10.04000, 5.0
10.12000, 9.0
10.20000, 9.0
10.28000, 10.0
10.36000, 8.0
10.44000, 7.0
10.52000, 7.0
10.60000, 10.0
10.68000, 6.0
10.76000, 4.0
10.84000, 5.0
10.92000, 10.0
11.00000, 10.0
11.08000, 4.0
11.16000, 8.0
11.24000, 9.0
11.32000, 4.0
11.40000, 5.0
11.48000, 6.0
11.56000, 4.0
11.64000, 6.0
11.72000, 5.0
11.80000, 5.0
11.88000, 8.0
11.96000, 3.0
12.04000, 2.0
12.12000, 5.0
12.20000, 3.0
12.28000, 2.0
12.36000, 6.0
12.44000, 2.0
12.52000, 3.0
12.60000, 3.0
12.68000, 4.0
12.76000, 4.0
12.84000, 2.0
12.92000, 2.0
13.00000, 1.0
13.08000, 2.0
13.16000, 1.0
13.24000, 2.0
13.32000, 1.0
13.40000, 2.0
13.48000, 1.0
13.56000, 0.0
13.64000, 1.0
13.72000, 2.0
13.80000, 1.0
13.88000, 1.0
13.96000, 1.0
14.04000, 0.0
14.12000, 1.0
14.20000, 2.0
14.28000, 0.0
14.36000, 1.0
14.44000, 1.0
14.52000, 2.0
14.60000, 1.0
14.68000, 0.0
14.76000, 1.0
14.84000, 1.0
14.92000, 0.0
15.00000, 0.0
15.08000, 0.0
15.16000, 0.0
15.24000, 0.0
15.32000, 0.0
15.40000, 0.0
15.48000, 0.0
15.56000, 0.0
15.64000, 0.0
15.72000, 0.0
15.80000, 0.0
15.88000, 0.0
15.96000, 0.0
16.04000, 0.0
16.12000, 0.0
16.20000, 0.0
16.28000, 0.0
16.36000, 0.0
16.44000, 0.0
16.52000, 0.0
16.60000, 0.0
16.68000, 0.0
16.76000, 0.0
16.84000, 0.0
16.92000, 0.0
17.00000, 0.0
17.08000, 0.0
17.16000, 0.0
17.24000, 0.0
17.32000, 0.0
17.40000, 0.0
17.48000, 0.0
17.56000, 0.0
17.64000, 0.0
17.72000, 0.0
17.80000, 0.0
17.88000, 0.0
17.96000, 0.0
18.04000, 0.0
18.12000, 0.0
18.20000, 0.0
18.28000, 0.0
18.36000, 0.0
18.44000, 0.0
18.52000, 0.0
18.60000, 0.0
18.68000, 0.0
18.76000, 0.0
18.84000, 0.0
18.92000, 0.0
19.00000, 0.0
19.08000, 0.0
19.16000, 0.0
19.24000, 0.0
19.32000, 0.0
19.40000, 0.0
19.48000, 0.0
19.56000, 0.0
19.64000, 0.0
19.72000, 0.0
19.80000, 0.0
19.88000, 0.0
19.96000, 0.0
20.04000, 0.0
20.12000, 0.0
20.20000, 0.0
20.26000, 0.0
#ENDOFDATA   :