Folder: Sommarjobb-2024/Measurements 090724

File: N8_10k_60_2.txt
#FORMAT      : EMSA/MAS Spectral Data File
#VERSION     : 1.0
#TITLE       : N8_10k_60_2
#DATE        : 09-JUL-2024
#TIME        : 15:56
#OWNER       :
#NPOINTS     : 2048.0
#NCOLUMNS    : 1.0
#XUNITS      : keV
#YUNITS      : counts
#DATATYPE    : XY
#XPERCHAN    : 0.005
#OFFSET      : -0.1
#SIGNALTYPE  : EDS
#CHOFFSET    : 20.0
#LIVETIME    : 60.0464
#REALTIME    : 60.8028
#BEAMKV      : 10.0
#MAGCAM      : 4500.0
#XTILTSTGE   : 0.0
#AZIMANGLE   : 0.0
#ELEVANGLE   : 25.5
#XPOSITION mm: 0.8225
#YPOSITION mm: 1.9170
#ZPOSITION mm: 14.0783
##OXINSTPT   : 2
##OXINSTSTROB: 69.69
##OXINSTELEMS: 6,8,29,79,78,14
##OXINSTLABEL: 6, 0.277, C K?1_2
##OXINSTLABEL: 8, 0.525, O K?1
##OXINSTLABEL: 29, 8.048, Cu K?1
##OXINSTLABEL: 29, 8.905, Cu K?1
##OXINSTLABEL: 29, 0.930, Cu L?1,2
##OXINSTLABEL: 29, 0.832, Cu L?
##OXINSTLABEL: 29, 0.811, Cu Ll
##OXINSTLABEL: 79, 9.713, Au L?1
##OXINSTLABEL: 79, 8.494, Au Ll
##OXINSTLABEL: 79, 2.123, Au M?1
##OXINSTLABEL: 79, 2.410, Au M?
##OXINSTLABEL: 79, 1.648, Au M?2
##OXINSTLABEL: 79, 0.265, Au N4-N6
##OXINSTLABEL: 79, 0.251, Au N5-N6,7
##OXINSTLABEL: 78, 9.442, Pt L?1
##OXINSTLABEL: 78, 9.975, Pt L?
##OXINSTLABEL: 78, 8.268, Pt Ll
##OXINSTLABEL: 78, 2.050, Pt M?1
##OXINSTLABEL: 78, 2.331, Pt M?
##OXINSTLABEL: 78, 1.592, Pt M?2
##OXINSTLABEL: 78, 0.258, Pt N4-N6
##OXINSTLABEL: 78, 0.244, Pt N5-N6,7
##OXINSTLABEL: 14, 1.740, Si K?1
#SPECTRUM    : Spectral Data Starts Here
-0.10000, 0.0
-0.06500, 4.0
-0.03000, 110.0
0.00500, 706.0
0.04000, 1357.0
0.07500, 902.0
0.11000, 179.0
0.14500, 34.0
0.18000, 42.0
0.21500, 66.0
0.25000, 221.0
0.28500, 269.0
0.32000, 100.0
0.35500, 34.0
0.39000, 38.0
0.42500, 39.0
0.46000, 115.0
0.49500, 412.0
0.53000, 501.0
0.56500, 257.0
0.60000, 54.0
0.63500, 12.0
0.67000, 13.0
0.70500, 15.0
0.74000, 21.0
0.77500, 24.0
0.81000, 27.0
0.84500, 26.0
0.88000, 30.0
0.91500, 32.0
0.95000, 32.0
0.98500, 29.0
1.02000, 33.0
1.05500, 37.0
1.09000, 29.0
1.12500, 26.0
1.16000, 33.0
1.19500, 31.0
1.23000, 35.0
1.26500, 32.0
1.30000, 30.0
1.33500, 36.0
1.37000, 31.0
1.40500, 37.0
1.44000, 32.0
1.47500, 40.0
1.51000, 36.0
1.54500, 39.0
1.58000, 36.0
1.61500, 52.0
1.65000, 191.0
1.68500, 812.0
1.72000, 1904.0
1.75500, 2065.0
1.79000, 1164.0
1.82500, 382.0
1.86000, 119.0
1.89500, 49.0
1.93000, 25.0
1.96500, 21.0
2.00000, 12.0
2.03500, 14.0
2.07000, 17.0
2.10500, 11.0
2.14000, 17.0
2.17500, 19.0
2.21000, 31.0
2.24500, 56.0
2.28000, 88.0
2.31500, 99.0
2.35000, 72.0
2.38500, 54.0
2.42000, 33.0
2.45500, 28.0
2.49000, 20.0
2.52500, 16.0
2.56000, 16.0
2.59500, 16.0
2.63000, 16.0
2.66500, 13.0
2.70000, 15.0
2.73500, 13.0
2.77000, 15.0
2.80500, 10.0
2.84000, 14.0
2.87500, 11.0
2.91000, 8.0
2.94500, 6.0
2.98000, 7.0
3.01500, 8.0
3.05000, 16.0
3.08500, 10.0
3.12000, 10.0
3.15500, 6.0
3.19000, 11.0
3.22500, 13.0
3.26000, 10.0
3.29500, 13.0
3.33000, 8.0
3.36500, 20.0
3.40000, 12.0
3.43500, 7.0
3.47000, 8.0
3.50500, 11.0
3.54000, 8.0
3.57500, 11.0
3.61000, 8.0
3.64500, 6.0
3.68000, 7.0
3.71500, 10.0
3.75000, 12.0
3.78500, 11.0
3.82000, 10.0
3.85500, 10.0
3.89000, 7.0
3.92500, 8.0
3.96000, 5.0
3.99500, 8.0
4.03000, 8.0
4.06500, 5.0
4.10000, 9.0
4.13500, 8.0
4.17000, 4.0
4.20500, 8.0
4.24000, 4.0
4.27500, 11.0
4.31000, 9.0
4.34500, 10.0
4.38000, 2.0
4.41500, 6.0
4.45000, 8.0
4.48500, 2.0
4.52000, 8.0
4.55500, 8.0
4.59000, 4.0
4.62500, 2.0
4.66000, 5.0
4.69500, 6.0
4.73000, 4.0
4.76500, 5.0
4.80000, 6.0
4.83500, 4.0
4.87000, 3.0
4.90500, 4.0
4.94000, 8.0
4.97500, 3.0
5.01000, 6.0
5.04500, 5.0
5.08000, 3.0
5.11500, 7.0
5.15000, 5.0
5.18500, 7.0
5.22000, 2.0
5.25500, 3.0
5.29000, 3.0
5.32500, 2.0
5.36000, 4.0
5.39500, 4.0
5.43000, 4.0
5.46500, 3.0
5.50000, 5.0
5.53500, 5.0
5.57000, 3.0
5.60500, 4.0
5.64000, 3.0
5.67500, 3.0
5.71000, 5.0
5.74500, 4.0
5.78000, 4.0
5.81500, 3.0
5.85000, 1.0
5.88500, 5.0
5.92000, 3.0
5.95500, 2.0
5.99000, 6.0
6.02500, 2.0
6.06000, 1.0
6.09500, 1.0
6.13000, 4.0
6.16500, 3.0
6.20000, 4.0
6.23500, 1.0
6.27000, 2.0
6.30500, 2.0
6.34000, 2.0
6.37500, 4.0
6.41000, 4.0
6.44500, 4.0
6.48000, 4.0
6.51500, 3.0
6.55000, 3.0
6.58500, 3.0
6.62000, 2.0
6.65500, 3.0
6.69000, 4.0
6.72500, 2.0
6.76000, 1.0
6.79500, 3.0
6.83000, 2.0
6.86500, 1.0
6.90000, 3.0
6.93500, 0.0
6.97000, 0.0
7.00500, 1.0
7.04000, 2.0
7.07500, 0.0
7.11000, 3.0
7.14500, 2.0
7.18000, 2.0
7.21500, 2.0
7.25000, 0.0
7.28500, 1.0
7.32000, 2.0
7.35500, 1.0
7.39000, 2.0
7.42500, 2.0
7.46000, 2.0
7.49500, 1.0
7.53000, 1.0
7.56500, 0.0
7.60000, 1.0
7.63500, 1.0
7.67000, 1.0
7.70500, 1.0
7.74000, 2.0
7.77500, 2.0
7.81000, 1.0
7.84500, 1.0
7.88000, 2.0
7.91500, 1.0
7.95000, 0.0
7.98500, 0.0
8.02000, 1.0
8.05500, 0.0
8.09000, 0.0
8.12500, 0.0
8.16000, 0.0
8.19500, 0.0
8.23000, 0.0
8.26500, 1.0
8.30000, 3.0
8.33500, 0.0
8.37000, 1.0
8.40500, 1.0
8.44000, 2.0
8.47500, 0.0
8.51000, 0.0
8.54500, 2.0
8.58000, 0.0
8.61500, 0.0
8.65000, 0.0
8.68500, 2.0
8.72000, 0.0
8.75500, 2.0
8.79000, 0.0
8.82500, 1.0
8.86000, 1.0
8.89500, 1.0
8.93000, 0.0
8.96500, 0.0
9.00000, 1.0
9.03500, 1.0
9.07000, 0.0
9.10500, 1.0
9.14000, 1.0
9.17500, 0.0
9.21000, 1.0
9.24500, 1.0
9.28000, 1.0
9.31500, 0.0
9.35000, 0.0
9.38500, 0.0
9.42000, 1.0
9.45500, 0.0
9.49000, 0.0
9.52500, 0.0
9.56000, 0.0
9.59500, 0.0
9.63000, 0.0
9.66500, 0.0
9.70000, 0.0
9.73500, 0.0
9.77000, 0.0
9.80500, 0.0
9.84000, 0.0
9.87500, 0.0
9.91000, 0.0
9.94500, 0.0
9.98000, 0.0
10.01500, 0.0
10.05000, 0.0
10.08500, 0.0
10.12000, 0.0
10.13500, 1.0
#ENDOFDATA   :

File: N15_10k_60_2.txt
#FORMAT      : EMSA/MAS Spectral Data File
#VERSION     : 1.0
#TITLE       : N15_10k_60_2
#DATE        : 09-JUL-2024
#TIME        : 15:47
#OWNER       :
#NPOINTS     : 2048.0
#NCOLUMNS    : 1.0
#XUNITS      : keV
#YUNITS      : counts
#DATATYPE    : XY
#XPERCHAN    : 0.005
#OFFSET      : -0.1
#SIGNALTYPE  : EDS
#CHOFFSET    : 20.0
#LIVETIME    : 60.0035
#REALTIME    : 60.6305
#BEAMKV      : 10.0
#MAGCAM      : 850.0
#XTILTSTGE   : 0.0
#AZIMANGLE   : 0.0
#ELEVANGLE   : 25.5
#XPOSITION mm: -1.0065
#YPOSITION mm: 1.8438
#ZPOSITION mm: 14.0783
##OXINSTPT   : 2
##OXINSTSTROB: 69.66
##OXINSTELEMS: 6,8,29,79,78,14
##OXINSTLABEL: 6, 0.277, C K?1_2
##OXINSTLABEL: 8, 0.525, O K?1
##OXINSTLABEL: 29, 8.048, Cu K?1
##OXINSTLABEL: 29, 8.905, Cu K?1
##OXINSTLABEL: 29, 0.930, Cu L?1,2
##OXINSTLABEL: 29, 0.832, Cu L?
##OXINSTLABEL: 29, 0.811, Cu Ll
##OXINSTLABEL: 79, 9.713, Au L?1
##OXINSTLABEL: 79, 8.494, Au Ll
##OXINSTLABEL: 79, 2.123, Au M?1
##OXINSTLABEL: 79, 2.410, Au M?
##OXINSTLABEL: 79, 1.648, Au M?2
##OXINSTLABEL: 79, 0.265, Au N4-N6
##OXINSTLABEL: 79, 0.251, Au N5-N6,7
##OXINSTLABEL: 78, 9.442, Pt L?1
##OXINSTLABEL: 78, 9.975, Pt L?
##OXINSTLABEL: 78, 8.268, Pt Ll
##OXINSTLABEL: 78, 2.050, Pt M?1
##OXINSTLABEL: 78, 2.331, Pt M?
##OXINSTLABEL: 78, 1.592, Pt M?2
##OXINSTLABEL: 78, 0.258, Pt N4-N6
##OXINSTLABEL: 78, 0.244, Pt N5-N6,7
##OXINSTLABEL: 14, 1.740, Si K?1
#SPECTRUM    : Spectral Data Starts Here
-0.10000, 0.0
-0.06500, 8.0
-0.03000, 120.0
0.00500, 664.0
0.04000, 1314.0
0.07500, 896.0
0.11000, 217.0
0.14500, 109.0
0.18000, 83.0
0.21500, 54.0
0.25000, 46.0
0.28500, 37.0
0.32000, 20.0
0.35500, 14.0
0.39000, 11.0
0.42500, 16.0
0.46000, 35.0
0.49500, 77.0
0.53000, 91.0
0.56500, 68.0
0.60000, 31.0
0.63500, 35.0
0.67000, 28.0
0.70500, 26.0
0.74000, 34.0
0.77500, 30.0
0.81000, 28.0
0.84500, 41.0
0.88000, 33.0
0.91500, 37.0
0.95000, 44.0
0.98500, 36.0
1.02000, 32.0
1.05500, 36.0
1.09000, 34.0
1.12500, 38.0
1.16000, 40.0
1.19500, 40.0
1.23000, 42.0
1.26500, 40.0
1.30000, 52.0
1.33500, 38.0
1.37000, 39.0
1.40500, 39.0
1.44000, 38.0
1.47500, 43.0
1.51000, 31.0
1.54500, 36.0
1.58000, 45.0
1.61500, 39.0
1.65000, 97.0
1.68500, 379.0
1.72000, 799.0
1.75500, 888.0
1.79000, 538.0
1.82500, 178.0
1.86000, 82.0
1.89500, 37.0
1.93000, 26.0
1.96500, 31.0
2.00000, 32.0
2.03500, 31.0
2.07000, 23.0
2.10500, 32.0
2.14000, 21.0
2.17500, 36.0
2.21000, 92.0
2.24500, 278.0
2.28000, 620.0
2.31500, 723.0
2.35000, 494.0
2.38500, 281.0
2.42000, 171.0
2.45500, 119.0
2.49000, 102.0
2.52500, 54.0
2.56000, 38.0
2.59500, 27.0
2.63000, 18.0
2.66500, 15.0
2.70000, 14.0
2.73500, 15.0
2.77000, 16.0
2.80500, 16.0
2.84000, 13.0
2.87500, 15.0
2.91000, 17.0
2.94500, 14.0
2.98000, 15.0
3.01500, 8.0
3.05000, 12.0
3.08500, 12.0
3.12000, 9.0
3.15500, 15.0
3.19000, 13.0
3.22500, 5.0
3.26000, 16.0
3.29500, 13.0
3.33000, 14.0
3.36500, 10.0
3.40000, 11.0
3.43500, 16.0
3.47000, 8.0
3.50500, 17.0
3.54000, 13.0
3.57500, 13.0
3.61000, 11.0
3.64500, 18.0
3.68000, 8.0
3.71500, 12.0
3.75000, 6.0
3.78500, 11.0
3.82000, 8.0
3.85500, 5.0
3.89000, 10.0
3.92500, 4.0
3.96000, 5.0
3.99500, 8.0
4.03000, 8.0
4.06500, 9.0
4.10000, 9.0
4.13500, 9.0
4.17000, 8.0
4.20500, 5.0
4.24000, 7.0
4.27500, 4.0
4.31000, 12.0
4.34500, 8.0
4.38000, 12.0
4.41500, 4.0
4.45000, 6.0
4.48500, 3.0
4.52000, 4.0
4.55500, 8.0
4.59000, 8.0
4.62500, 10.0
4.66000, 7.0
4.69500, 8.0
4.73000, 10.0
4.76500, 5.0
4.80000, 5.0
4.83500, 5.0
4.87000, 7.0
4.90500, 8.0
4.94000, 4.0
4.97500, 5.0
5.01000, 10.0
5.04500, 6.0
5.08000, 7.0
5.11500, 6.0
5.15000, 8.0
5.18500, 9.0
5.22000, 4.0
5.25500, 5.0
5.29000, 5.0
5.32500, 4.0
5.36000, 3.0
5.39500, 8.0
5.43000, 6.0
5.46500, 5.0
5.50000, 5.0
5.53500, 5.0
5.57000, 6.0
5.60500, 4.0
5.64000, 4.0
5.67500, 5.0
5.71000, 4.0
5.74500, 4.0
5.78000, 6.0
5.81500, 8.0
5.85000, 6.0
5.88500, 5.0
5.92000, 6.0
5.95500, 2.0
5.99000, 3.0
6.02500, 4.0
6.06000, 5.0
6.09500, 3.0
6.13000, 4.0
6.16500, 3.0
6.20000, 6.0
6.23500, 4.0
6.27000, 3.0
6.30500, 4.0
6.34000, 3.0
6.37500, 2.0
6.41000, 4.0
6.44500, 5.0
6.48000, 6.0
6.51500, 3.0
6.55000, 5.0
6.58500, 4.0
6.62000, 4.0
6.65500, 6.0
6.69000, 3.0
6.72500, 4.0
6.76000, 5.0
6.79500, 1.0
6.83000, 4.0
6.86500, 5.0
6.90000, 5.0
6.93500, 3.0
6.97000, 2.0
7.00500, 5.0
7.04000, 1.0
7.07500, 4.0
7.11000, 4.0
7.14500, 4.0
7.18000, 3.0
7.21500, 2.0
7.25000, 1.0
7.28500, 3.0
7.32000, 2.0
7.35500, 2.0
7.39000, 3.0
7.42500, 1.0
7.46000, 4.0
7.49500, 2.0
7.53000, 5.0
7.56500, 2.0
7.60000, 2.0
7.63500, 2.0
7.67000, 2.0
7.70500, 2.0
7.74000, 3.0
7.77500, 3.0
7.81000, 1.0
7.84500, 3.0
7.88000, 0.0
7.91500, 2.0
7.95000, 1.0
7.98500, 2.0
8.02000, 3.0
8.05500, 3.0
8.09000, 3.0
8.12500, 7.0
8.16000, 1.0
8.19500, 2.0
8.23000, 0.0
8.26500, 1.0
8.30000, 3.0
8.33500, 2.0
8.37000, 2.0
8.40500, 2.0
8.44000, 1.0
8.47500, 1.0
8.51000, 3.0
8.54500, 3.0
8.58000, 1.0
8.61500, 0.0
8.65000, 1.0
8.68500, 1.0
8.72000, 2.0
8.75500, 2.0
8.79000, 4.0
8.82500, 0.0
8.86000, 1.0
8.89500, 2.0
8.93000, 0.0
8.96500, 1.0
9.00000, 1.0
9.03500, 4.0
9.07000, 0.0
9.10500, 1.0
9.14000, 0.0
9.17500, 1.0
9.21000, 1.0
9.24500, 0.0
9.28000, 2.0
9.31500, 2.0
9.35000, 1.0
9.38500, 1.0
9.42000, 3.0
9.45500, 0.0
9.49000, 1.0
9.52500, 0.0
9.56000, 0.0
9.59500, 0.0
9.63000, 2.0
9.66500, 0.0
9.70000, 3.0
9.73500, 0.0
9.77000, 1.0
9.80500, 1.0
9.84000, 0.0
9.87500, 0.0
9.91000, 1.0
9.94500, 0.0
9.98000, 0.0
10.01500, 0.0
10.05000, 0.0
10.08500, 0.0
10.12000, 0.0
10.13500, 0.0
#ENDOFDATA   :