Folder: Sommarjobb-2024/measurements 2

File: A10_15keV_2.txt
#FORMAT      : EMSA/MAS Spectral Data File
#VERSION     : 1.0
#TITLE       : A10_15keV_2
#DATE        : 08-JUL-2024
#TIME        : 14:18
#OWNER       :
#NPOINTS     : 2048.0
#NCOLUMNS    : 1.0
#XUNITS      : keV
#YUNITS      : counts
#DATATYPE    : XY
#XPERCHAN    : 0.005
#OFFSET      : -0.1
#SIGNALTYPE  : EDS
#CHOFFSET    : 20.0
#LIVETIME    : 20.0466
#REALTIME    : 20.3373
#BEAMKV      : 15.0
#MAGCAM      : 200.0
#XTILTSTGE   : 0.0
#AZIMANGLE   : 0.0
#ELEVANGLE   : 25.5
#XPOSITION mm: 0.4190
#YPOSITION mm: -1.1625
#ZPOSITION mm: 14.0536
##OXINSTPT   : 2
##OXINSTSTROB: 69.63
##OXINSTELEMS: 16,8,14,42
##OXINSTLABEL: 16, 2.308, S K?1
##OXINSTLABEL: 16, 2.464, S K?1
##OXINSTLABEL: 8, 0.525, O K?1
##OXINSTLABEL: 14, 1.740, Si K?1
##OXINSTLABEL: 42, 0.193, Mo M?
##OXINSTLABEL: 42, 2.016, Mo Ll
##OXINSTLABEL: 42, 2.120, Mo L?
##OXINSTLABEL: 42, 2.293, Mo L?1
##OXINSTLABEL: 42, 2.395, Mo L?1
##OXINSTLABEL: 42, 2.518, Mo L?2,15
##OXINSTLABEL: 42, 2.624, Mo L?1
##OXINSTLABEL: 42, 2.831, Mo L?2,3
#SPECTRUM    : Spectral Data Starts Here
-0.10000, 0.0
-0.06500, 1.0
-0.03000, 30.0
0.00500, 219.0
0.04000, 415.0
0.07500, 292.0
0.11000, 70.0
0.14500, 38.0
0.18000, 24.0
0.21500, 16.0
0.25000, 12.0
0.28500, 12.0
0.32000, 5.0
0.35500, 3.0
0.39000, 4.0
0.42500, 4.0
0.46000, 8.0
0.49500, 11.0
0.53000, 18.0
0.56500, 27.0
0.60000, 21.0
0.63500, 11.0
0.67000, 13.0
0.70500, 9.0
0.74000, 18.0
0.77500, 18.0
0.81000, 15.0
0.84500, 15.0
0.88000, 6.0
0.91500, 17.0
0.95000, 15.0
0.98500, 11.0
1.02000, 18.0
1.05500, 19.0
1.09000, 14.0
1.12500, 16.0
1.16000, 15.0
1.19500, 23.0
1.23000, 19.0
1.26500, 20.0
1.30000, 20.0
1.33500, 18.0
1.37000, 18.0
1.40500, 16.0
1.44000, 21.0
1.47500, 23.0
1.51000, 29.0
1.54500, 15.0
1.58000, 20.0
1.61500, 15.0
1.65000, 27.0
1.68500, 49.0
1.72000, 71.0
1.75500, 94.0
1.79000, 61.0
1.82500, 30.0
1.86000, 28.0
1.89500, 15.0
1.93000, 25.0
1.96500, 27.0
2.00000, 37.0
2.03500, 37.0
2.07000, 30.0
2.10500, 27.0
2.14000, 30.0
2.17500, 34.0
2.21000, 124.0
2.24500, 368.0
2.28000, 827.0
2.31500, 973.0
2.35000, 689.0
2.38500, 368.0
2.42000, 228.0
2.45500, 146.0
2.49000, 95.0
2.52500, 51.0
2.56000, 30.0
2.59500, 17.0
2.63000, 11.0
2.66500, 11.0
2.70000, 6.0
2.73500, 8.0
2.77000, 11.0
2.80500, 11.0
2.84000, 8.0
2.87500, 6.0
2.91000, 2.0
2.94500, 7.0
2.98000, 5.0
3.01500, 9.0
3.05000, 7.0
3.08500, 3.0
3.12000, 6.0
3.15500, 10.0
3.19000, 6.0
3.22500, 8.0
3.26000, 10.0
3.29500, 4.0
3.33000, 7.0
3.36500, 7.0
3.40000, 5.0
3.43500, 8.0
3.47000, 5.0
3.50500, 8.0
3.54000, 7.0
3.57500, 6.0
3.61000, 9.0
3.64500, 8.0
3.68000, 5.0
3.71500, 12.0
3.75000, 4.0
3.78500, 4.0
3.82000, 9.0
3.85500, 4.0
3.89000, 6.0
3.92500, 5.0
3.96000, 3.0
3.99500, 7.0
4.03000, 6.0
4.06500, 9.0
4.10000, 3.0
4.13500, 4.0
4.17000, 11.0
4.20500, 8.0
4.24000, 5.0
4.27500, 11.0
4.31000, 5.0
4.34500, 6.0
4.38000, 5.0
4.41500, 7.0
4.45000, 7.0
4.48500, 9.0
4.52000, 7.0
4.55500, 4.0
4.59000, 5.0
4.62500, 9.0
4.66000, 9.0
4.69500, 6.0
4.73000, 5.0
4.76500, 5.0
4.80000, 3.0
4.83500, 9.0
4.87000, 6.0
4.90500, 4.0
4.94000, 3.0
4.97500, 5.0
5.01000, 6.0
5.04500, 3.0
5.08000, 5.0
5.11500, 6.0
5.15000, 4.0
5.18500, 5.0
5.22000, 5.0
5.25500, 4.0
5.29000, 7.0
5.32500, 3.0
5.36000, 6.0
5.39500, 3.0
5.43000, 2.0
5.46500, 5.0
5.50000, 9.0
5.53500, 10.0
5.57000, 5.0
5.60500, 4.0
5.64000, 5.0
5.67500, 6.0
5.71000, 3.0
5.74500, 7.0
5.78000, 4.0
5.81500, 4.0
5.85000, 2.0
5.88500, 7.0
5.92000, 6.0
5.95500, 6.0
5.99000, 6.0
6.02500, 4.0
6.06000, 3.0
6.09500, 2.0
6.13000, 4.0
6.16500, 4.0
6.20000, 3.0
6.23500, 1.0
6.27000, 4.0
6.30500, 6.0
6.34000, 7.0
6.37500, 3.0
6.41000, 3.0
6.44500, 3.0
6.48000, 3.0
6.51500, 6.0
6.55000, 3.0
6.58500, 4.0
6.62000, 4.0
6.65500, 4.0
6.69000, 3.0
6.72500, 3.0
6.76000, 5.0
6.79500, 7.0
6.83000, 2.0
6.86500, 2.0
6.90000, 6.0
6.93500, 2.0
6.97000, 5.0
7.00500, 5.0
7.04000, 3.0
7.07500, 1.0
7.11000, 3.0
7.14500, 3.0
7.18000, 3.0
7.21500, 3.0
7.25000, 2.0
7.28500, 3.0
7.32000, 2.0
7.35500, 5.0
7.39000, 2.0
7.42500, 2.0
7.46000, 4.0
7.49500, 4.0
7.53000, 4.0
7.56500, 3.0
7.60000, 4.0
7.63500, 3.0
7.67000, 1.0
7.70500, 3.0
7.74000, 1.0
7.77500, 2.0
7.81000, 1.0
7.84500, 2.0
7.88000, 3.0
7.91500, 5.0
7.95000, 3.0
7.98500, 1.0
8.02000, 3.0
8.05500, 2.0
8.09000, 5.0
8.12500, 5.0
8.16000, 5.0
8.19500, 1.0
8.23000, 1.0
8.26500, 3.0
8.30000, 3.0
8.33500, 2.0
8.37000, 1.0
8.40500, 4.0
8.44000, 2.0
8.47500, 1.0
8.51000, 0.0
8.54500, 2.0
8.58000, 3.0
8.61500, 0.0
8.65000, 4.0
8.68500, 2.0
8.72000, 2.0
8.75500, 2.0
8.79000, 6.0
8.82500, 2.0
8.86000, 1.0
8.89500, 2.0
8.93000, 4.0
8.96500, 0.0
9.00000, 1.0
9.03500, 2.0
9.07000, 4.0
9.10500, 4.0
9.14000, 3.0
9.17500, 2.0
9.21000, 3.0
9.24500, 0.0
9.28000, 4.0
9.31500, 0.0
9.35000, 1.0
9.38500, 3.0
9.42000, 0.0
9.45500, 0.0
9.49000, 2.0
9.52500, 3.0
9.56000, 1.0
9.59500, 1.0
9.63000, 2.0
9.66500, 3.0
9.70000, 0.0
9.73500, 2.0
9.77000, 2.0
9.80500, 3.0
9.84000, 1.0
9.87500, 1.0
9.91000, 0.0
9.94500, 2.0
9.98000, 1.0
10.01500, 1.0
10.05000, 1.0
10.08500, 2.0
10.12000, 0.0
10.13500, 1.0
#ENDOFDATA   :

File: D9_15keV_3.txt
#FORMAT      : EMSA/MAS Spectral Data File
#VERSION     : 1.0
#TITLE       : D9_15keV_3
#DATE        : 08-JUL-2024
#TIME        : 14:07
#OWNER       :
#NPOINTS     : 2048.0
#NCOLUMNS    : 1.0
#XUNITS      : keV
#YUNITS      : counts
#DATATYPE    : XY
#XPERCHAN    : 0.005
#OFFSET      : -0.1
#SIGNALTYPE  : EDS
#CHOFFSET    : 20.0
#LIVETIME    : 20.0138
#REALTIME    : 20.306
#BEAMKV      : 15.0
#MAGCAM      : 2500.0
#XTILTSTGE   : 0.0
#AZIMANGLE   : 0.0
#ELEVANGLE   : 25.5
#XPOSITION mm: 0.7533
#YPOSITION mm: -0.6938
#ZPOSITION mm: 14.1272
##OXINSTPT   : 2
##OXINSTSTROB: 69.66
##OXINSTELEMS: 16,8,14,42
##OXINSTLABEL: 16, 2.308, S K?1
##OXINSTLABEL: 16, 2.464, S K?1
##OXINSTLABEL: 8, 0.525, O K?1
##OXINSTLABEL: 14, 1.740, Si K?1
##OXINSTLABEL: 42, 0.193, Mo M?
##OXINSTLABEL: 42, 2.016, Mo Ll
##OXINSTLABEL: 42, 2.120, Mo L?
##OXINSTLABEL: 42, 2.293, Mo L?1
##OXINSTLABEL: 42, 2.395, Mo L?1
##OXINSTLABEL: 42, 2.518, Mo L?2,15
##OXINSTLABEL: 42, 2.624, Mo L?1
##OXINSTLABEL: 42, 2.831, Mo L?2,3
#SPECTRUM    : Spectral Data Starts Here
-0.10000, 0.0
-0.06500, 0.0
-0.03000, 30.0
0.00500, 220.0
0.04000, 440.0
0.07500, 306.0
0.11000, 59.0
0.14500, 9.0
0.18000, 3.0
0.21500, 17.0
0.25000, 56.0
0.28500, 62.0
0.32000, 33.0
0.35500, 8.0
0.39000, 9.0
0.42500, 7.0
0.46000, 28.0
0.49500, 91.0
0.53000, 115.0
0.56500, 74.0
0.60000, 11.0
0.63500, 2.0
0.67000, 5.0
0.70500, 7.0
0.74000, 10.0
0.77500, 9.0
0.81000, 12.0
0.84500, 8.0
0.88000, 8.0
0.91500, 9.0
0.95000, 12.0
0.98500, 17.0
1.02000, 16.0
1.05500, 15.0
1.09000, 17.0
1.12500, 13.0
1.16000, 13.0
1.19500, 15.0
1.23000, 12.0
1.26500, 20.0
1.30000, 17.0
1.33500, 21.0
1.37000, 18.0
1.40500, 19.0
1.44000, 12.0
1.47500, 20.0
1.51000, 27.0
1.54500, 19.0
1.58000, 27.0
1.61500, 32.0
1.65000, 137.0
1.68500, 632.0
1.72000, 1472.0
1.75500, 1640.0
1.79000, 894.0
1.82500, 285.0
1.86000, 86.0
1.89500, 33.0
1.93000, 15.0
1.96500, 7.0
2.00000, 7.0
2.03500, 4.0
2.07000, 7.0
2.10500, 5.0
2.14000, 7.0
2.17500, 8.0
2.21000, 8.0
2.24500, 13.0
2.28000, 22.0
2.31500, 20.0
2.35000, 19.0
2.38500, 11.0
2.42000, 9.0
2.45500, 10.0
2.49000, 5.0
2.52500, 8.0
2.56000, 5.0
2.59500, 11.0
2.63000, 6.0
2.66500, 9.0
2.70000, 9.0
2.73500, 3.0
2.77000, 7.0
2.80500, 7.0
2.84000, 5.0
2.87500, 4.0
2.91000, 4.0
2.94500, 4.0
2.98000, 6.0
3.01500, 5.0
3.05000, 5.0
3.08500, 4.0
3.12000, 7.0
3.15500, 4.0
3.19000, 4.0
3.22500, 4.0
3.26000, 8.0
3.29500, 5.0
3.33000, 4.0
3.36500, 3.0
3.40000, 4.0
3.43500, 5.0
3.47000, 6.0
3.50500, 10.0
3.54000, 8.0
3.57500, 3.0
3.61000, 8.0
3.64500, 4.0
3.68000, 7.0
3.71500, 4.0
3.75000, 1.0
3.78500, 2.0
3.82000, 3.0
3.85500, 7.0
3.89000, 4.0
3.92500, 4.0
3.96000, 3.0
3.99500, 4.0
4.03000, 6.0
4.06500, 1.0
4.10000, 2.0
4.13500, 4.0
4.17000, 2.0
4.20500, 4.0
4.24000, 4.0
4.27500, 4.0
4.31000, 5.0
4.34500, 3.0
4.38000, 2.0
4.41500, 5.0
4.45000, 3.0
4.48500, 3.0
4.52000, 2.0
4.55500, 5.0
4.59000, 1.0
4.62500, 3.0
4.66000, 3.0
4.69500, 1.0
4.73000, 3.0
4.76500, 4.0
4.80000, 2.0
4.83500, 3.0
4.87000, 3.0
4.90500, 3.0
4.94000, 4.0
4.97500, 1.0
5.01000, 2.0
5.04500, 3.0
5.08000, 4.0
5.11500, 2.0
5.15000, 2.0
5.18500, 1.0
5.22000, 6.0
5.25500, 1.0
5.29000, 1.0
5.32500, 3.0
5.36000, 2.0
5.39500, 0.0
5.43000, 5.0
5.46500, 4.0
5.50000, 2.0
5.53500, 4.0
5.57000, 3.0
5.60500, 2.0
5.64000, 4.0
5.67500, 4.0
5.71000, 3.0
5.74500, 3.0
5.78000, 2.0
5.81500, 3.0
5.85000, 3.0
5.88500, 2.0
5.92000, 2.0
5.95500, 4.0
5.99000, 2.0
6.02500, 2.0
6.06000, 4.0
6.09500, 4.0
6.13000, 3.0
6.16500, 1.0
6.20000, 3.0
6.23500, 4.0
6.27000, 4.0
6.30500, 2.0
6.34000, 3.0
6.37500, 3.0
6.41000, 3.0
6.44500, 4.0
6.48000, 1.0
6.51500, 3.0
6.55000, 1.0
6.58500, 1.0
6.62000, 3.0
6.65500, 2.0
6.69000, 2.0
6.72500, 2.0
6.76000, 3.0
6.79500, 3.0
6.83000, 2.0
6.86500, 3.0
6.90000, 1.0
6.93500, 1.0
6.97000, 0.0
7.00500, 1.0
7.04000, 1.0
7.07500, 3.0
7.11000, 3.0
7.14500, 0.0
7.18000, 0.0
7.21500, 1.0
7.25000, 3.0
7.28500, 1.0
7.32000, 0.0
7.35500, 1.0
7.39000, 1.0
7.42500, 4.0
7.46000, 4.0
7.49500, 0.0
7.53000, 2.0
7.56500, 0.0
7.60000, 0.0
7.63500, 1.0
7.67000, 0.0
7.70500, 2.0
7.74000, 0.0
7.77500, 0.0
7.81000, 0.0
7.84500, 2.0
7.88000, 2.0
7.91500, 1.0
7.95000, 2.0
7.98500, 0.0
8.02000, 1.0
8.05500, 0.0
8.09000, 0.0
8.12500, 3.0
8.16000, 0.0
8.19500, 0.0
8.23000, 2.0
8.26500, 0.0
8.30000, 1.0
8.33500, 1.0
8.37000, 1.0
8.40500, 2.0
8.44000, 0.0
8.47500, 0.0
8.51000, 0.0
8.54500, 1.0
8.58000, 0.0
8.61500, 1.0
8.65000, 0.0
8.68500, 1.0
8.72000, 3.0
8.75500, 2.0
8.79000, 1.0
8.82500, 1.0
8.86000, 0.0
8.89500, 0.0
8.93000, 0.0
8.96500, 2.0
9.00000, 0.0
9.03500, 0.0
9.07000, 2.0
9.10500, 0.0
9.14000, 2.0
9.17500, 0.0
9.21000, 0.0
9.24500, 0.0
9.28000, 2.0
9.31500, 1.0
9.35000, 2.0
9.38500, 0.0
9.42000, 1.0
9.45500, 1.0
9.49000, 1.0
9.52500, 0.0
9.56000, 0.0
9.59500, 3.0
9.63000, 2.0
9.66500, 2.0
9.70000, 0.0
9.73500, 2.0
9.77000, 1.0
9.80500, 0.0
9.84000, 0.0
9.87500, 1.0
9.91000, 1.0
9.94500, 1.0
9.98000, 0.0
10.01500, 0.0
10.05000, 0.0
10.08500, 1.0
10.12000, 0.0
10.13500, 1.0
#ENDOFDATA   :