Folder: Sommarjobb-2024/Spectras 20250424 (part 3)

File: 20250425_10K_D2_area2_3.txt
#FORMAT      : EMSA/MAS Spectral Data File
#VERSION     : 1.0
#TITLE       : 20250425_10K_D2_area2_3
#DATE        : 24-APR-2025
#TIME        : 10:33
#OWNER       :
#NPOINTS     : 2048.0
#NCOLUMNS    : 1.0
#XUNITS      : keV
#YUNITS      : counts
#DATATYPE    : XY
#XPERCHAN    : 0.005
#OFFSET      : -0.1
#SIGNALTYPE  : EDS
#CHOFFSET    : 20.0
#LIVETIME    : 60.0
#REALTIME    : 61.9048
#BEAMKV      : 10.0
#MAGCAM      : 1800.0
#XTILTSTGE   : 0.0
#AZIMANGLE   : 0.0
#ELEVANGLE   : 29.0
#XPOSITION mm: 2.4460
#YPOSITION mm: 0.1345
#ZPOSITION mm: 13.5200
##OXINSTPT   : 2
##OXINSTSTROB: 67.51
#SPECTRUM    : Spectral Data Starts Here
-0.10000, 0.0
-0.06500, 3.0
-0.03000, 69.0
0.00500, 502.0
0.04000, 1022.0
0.07500, 784.0
0.11000, 190.0
0.14500, 69.0
0.18000, 63.0
0.21500, 78.0
0.25000, 117.0
0.28500, 123.0
0.32000, 87.0
0.35500, 84.0
0.39000, 140.0
0.42500, 273.0
0.46000, 1368.0
0.49500, 4525.0
0.53000, 6279.0
0.56500, 2769.0
0.60000, 495.0
0.63500, 114.0
0.67000, 99.0
0.70500, 101.0
0.74000, 124.0
0.77500, 153.0
0.81000, 156.0
0.84500, 161.0
0.88000, 160.0
0.91500, 187.0
0.95000, 192.0
0.98500, 187.0
1.02000, 190.0
1.05500, 183.0
1.09000, 198.0
1.12500, 204.0
1.16000, 178.0
1.19500, 206.0
1.23000, 190.0
1.26500, 210.0
1.30000, 202.0
1.33500, 175.0
1.37000, 189.0
1.40500, 220.0
1.44000, 184.0
1.47500, 219.0
1.51000, 237.0
1.54500, 231.0
1.58000, 244.0
1.61500, 329.0
1.65000, 1253.0
1.68500, 5325.0
1.72000, 12483.0
1.75500, 13940.0
1.79000, 7525.0
1.82500, 2452.0
1.86000, 798.0
1.89500, 338.0
1.93000, 143.0
1.96500, 100.0
2.00000, 89.0
2.03500, 88.0
2.07000, 92.0
2.10500, 89.0
2.14000, 97.0
2.17500, 91.0
2.21000, 104.0
2.24500, 121.0
2.28000, 137.0
2.31500, 157.0
2.35000, 119.0
2.38500, 120.0
2.42000, 89.0
2.45500, 87.0
2.49000, 78.0
2.52500, 82.0
2.56000, 81.0
2.59500, 74.0
2.63000, 71.0
2.66500, 69.0
2.70000, 76.0
2.73500, 66.0
2.77000, 76.0
2.80500, 66.0
2.84000, 65.0
2.87500, 55.0
2.91000, 59.0
2.94500, 77.0
2.98000, 63.0
3.01500, 65.0
3.05000, 68.0
3.08500, 66.0
3.12000, 61.0
3.15500, 58.0
3.19000, 55.0
3.22500, 47.0
3.26000, 80.0
3.29500, 59.0
3.33000, 63.0
3.36500, 63.0
3.40000, 65.0
3.43500, 69.0
3.47000, 80.0
3.50500, 77.0
3.54000, 64.0
3.57500, 54.0
3.61000, 55.0
3.64500, 48.0
3.68000, 48.0
3.71500, 41.0
3.75000, 59.0
3.78500, 47.0
3.82000, 49.0
3.85500, 42.0
3.89000, 54.0
3.92500, 44.0
3.96000, 34.0
3.99500, 52.0
4.03000, 44.0
4.06500, 39.0
4.10000, 41.0
4.13500, 40.0
4.17000, 51.0
4.20500, 34.0
4.24000, 39.0
4.27500, 27.0
4.31000, 33.0
4.34500, 33.0
4.38000, 36.0
4.41500, 39.0
4.45000, 40.0
4.48500, 35.0
4.52000, 38.0
4.55500, 28.0
4.59000, 33.0
4.62500, 27.0
4.66000, 30.0
4.69500, 39.0
4.73000, 30.0
4.76500, 31.0
4.80000, 25.0
4.83500, 34.0
4.87000, 33.0
4.90500, 31.0
4.94000, 24.0
4.97500, 22.0
5.01000, 25.0
5.04500, 37.0
5.08000, 26.0
5.11500, 28.0
5.15000, 29.0
5.18500, 32.0
5.22000, 30.0
5.25500, 35.0
5.29000, 31.0
5.32500, 25.0
5.36000, 26.0
5.39500, 23.0
5.43000, 27.0
5.46500, 30.0
5.50000, 25.0
5.53500, 26.0
5.57000, 24.0
5.60500, 23.0
5.64000, 28.0
5.67500, 15.0
5.71000, 16.0
5.74500, 27.0
5.78000, 15.0
5.81500, 26.0
5.85000, 11.0
5.88500, 22.0
5.92000, 17.0
5.95500, 18.0
5.99000, 14.0
6.02500, 26.0
6.06000, 18.0
6.09500, 15.0
6.13000, 14.0
6.16500, 11.0
6.20000, 13.0
6.23500, 8.0
6.27000, 19.0
6.30500, 18.0
6.34000, 18.0
6.37500, 20.0
6.41000, 12.0
6.44500, 19.0
6.48000, 7.0
6.51500, 17.0
6.55000, 12.0
6.58500, 7.0
6.62000, 9.0
6.65500, 9.0
6.69000, 14.0
6.72500, 17.0
6.76000, 13.0
6.79500, 16.0
6.83000, 16.0
6.86500, 15.0
6.90000, 15.0
6.93500, 15.0
6.97000, 12.0
7.00500, 6.0
7.04000, 15.0
7.07500, 8.0
7.11000, 7.0
7.14500, 9.0
7.18000, 6.0
7.21500, 8.0
7.25000, 10.0
7.28500, 12.0
7.32000, 7.0
7.35500, 9.0
7.39000, 7.0
7.42500, 4.0
7.46000, 10.0
7.49500, 13.0
7.53000, 12.0
7.56500, 3.0
7.60000, 9.0
7.63500, 13.0
7.67000, 14.0
7.70500, 12.0
7.74000, 4.0
7.77500, 10.0
7.81000, 3.0
7.84500, 10.0
7.88000, 7.0
7.91500, 5.0
7.95000, 5.0
7.98500, 3.0
8.02000, 11.0
8.05500, 7.0
8.09000, 9.0
8.12500, 4.0
8.16000, 6.0
8.19500, 6.0
8.23000, 7.0
8.26500, 4.0
8.30000, 4.0
8.33500, 4.0
8.37000, 7.0
8.40500, 3.0
8.44000, 5.0
8.47500, 5.0
8.51000, 5.0
8.54500, 0.0
8.58000, 4.0
8.61500, 2.0
8.65000, 4.0
8.68500, 1.0
8.72000, 8.0
8.75500, 4.0
8.79000, 1.0
8.82500, 1.0
8.86000, 1.0
8.89500, 1.0
8.93000, 0.0
8.96500, 3.0
9.00000, 2.0
9.03500, 3.0
9.07000, 0.0
9.10500, 1.0
9.14000, 2.0
9.17500, 3.0
9.21000, 2.0
9.24500, 1.0
9.28000, 2.0
9.31500, 3.0
9.35000, 2.0
9.38500, 2.0
9.42000, 0.0
9.45500, 3.0
9.49000, 3.0
9.52500, 0.0
9.56000, 1.0
9.59500, 0.0
9.63000, 3.0
9.66500, 1.0
9.70000, 2.0
9.73500, 2.0
9.77000, 0.0
9.80500, 2.0
9.84000, 0.0
9.87500, 0.0
9.91000, 0.0
9.94500, 0.0
9.98000, 0.0
10.01500, 0.0
10.05000, 0.0
10.08500, 0.0
10.12000, 0.0
10.13500, 0.0
#ENDOFDATA   :

File: 20250425_10K_G10_1.txt
#FORMAT      : EMSA/MAS Spectral Data File
#VERSION     : 1.0
#TITLE       : 20250425_10K_G10_1
#DATE        : 24-APR-2025
#TIME        : 09:57
#OWNER       :
#NPOINTS     : 2048.0
#NCOLUMNS    : 1.0
#XUNITS      : keV
#YUNITS      : counts
#DATATYPE    : XY
#XPERCHAN    : 0.005
#OFFSET      : -0.1
#SIGNALTYPE  : EDS
#CHOFFSET    : 20.0
#LIVETIME    : 60.0
#REALTIME    : 61.8877
#BEAMKV      : 10.0
#MAGCAM      : 3300.0
#XTILTSTGE   : 0.0
#AZIMANGLE   : 0.0
#ELEVANGLE   : 29.0
#XPOSITION mm: 0.5138
#YPOSITION mm: -0.6150
#ZPOSITION mm: 13.5353
##OXINSTPT   : 2
##OXINSTSTROB: 67.49
#SPECTRUM    : Spectral Data Starts Here
-0.10000, 0.0
-0.06500, 4.0
-0.03000, 71.0
0.00500, 465.0
0.04000, 1007.0
0.07500, 743.0
0.11000, 190.0
0.14500, 56.0
0.18000, 59.0
0.21500, 74.0
0.25000, 108.0
0.28500, 118.0
0.32000, 88.0
0.35500, 81.0
0.39000, 128.0
0.42500, 284.0
0.46000, 1348.0
0.49500, 4584.0
0.53000, 6000.0
0.56500, 2711.0
0.60000, 519.0
0.63500, 110.0
0.67000, 103.0
0.70500, 121.0
0.74000, 124.0
0.77500, 136.0
0.81000, 151.0
0.84500, 170.0
0.88000, 156.0
0.91500, 171.0
0.95000, 185.0
0.98500, 193.0
1.02000, 193.0
1.05500, 211.0
1.09000, 202.0
1.12500, 189.0
1.16000, 190.0
1.19500, 196.0
1.23000, 202.0
1.26500, 198.0
1.30000, 216.0
1.33500, 180.0
1.37000, 209.0
1.40500, 195.0
1.44000, 206.0
1.47500, 229.0
1.51000, 242.0
1.54500, 224.0
1.58000, 237.0
1.61500, 319.0
1.65000, 1243.0
1.68500, 5509.0
1.72000, 12684.0
1.75500, 14536.0
1.79000, 7617.0
1.82500, 2505.0
1.86000, 782.0
1.89500, 296.0
1.93000, 143.0
1.96500, 96.0
2.00000, 89.0
2.03500, 81.0
2.07000, 91.0
2.10500, 89.0
2.14000, 86.0
2.17500, 85.0
2.21000, 92.0
2.24500, 124.0
2.28000, 138.0
2.31500, 136.0
2.35000, 109.0
2.38500, 110.0
2.42000, 86.0
2.45500, 82.0
2.49000, 79.0
2.52500, 66.0
2.56000, 88.0
2.59500, 67.0
2.63000, 74.0
2.66500, 79.0
2.70000, 73.0
2.73500, 82.0
2.77000, 76.0
2.80500, 68.0
2.84000, 60.0
2.87500, 53.0
2.91000, 57.0
2.94500, 53.0
2.98000, 62.0
3.01500, 68.0
3.05000, 67.0
3.08500, 61.0
3.12000, 64.0
3.15500, 73.0
3.19000, 63.0
3.22500, 80.0
3.26000, 52.0
3.29500, 60.0
3.33000, 51.0
3.36500, 56.0
3.40000, 55.0
3.43500, 70.0
3.47000, 64.0
3.50500, 93.0
3.54000, 74.0
3.57500, 56.0
3.61000, 51.0
3.64500, 64.0
3.68000, 42.0
3.71500, 56.0
3.75000, 56.0
3.78500, 49.0
3.82000, 38.0
3.85500, 42.0
3.89000, 41.0
3.92500, 47.0
3.96000, 38.0
3.99500, 41.0
4.03000, 32.0
4.06500, 45.0
4.10000, 45.0
4.13500, 44.0
4.17000, 32.0
4.20500, 45.0
4.24000, 35.0
4.27500, 40.0
4.31000, 46.0
4.34500, 37.0
4.38000, 33.0
4.41500, 35.0
4.45000, 49.0
4.48500, 35.0
4.52000, 37.0
4.55500, 33.0
4.59000, 31.0
4.62500, 32.0
4.66000, 35.0
4.69500, 43.0
4.73000, 32.0
4.76500, 29.0
4.80000, 28.0
4.83500, 37.0
4.87000, 35.0
4.90500, 18.0
4.94000, 31.0
4.97500, 35.0
5.01000, 30.0
5.04500, 39.0
5.08000, 21.0
5.11500, 29.0
5.15000, 24.0
5.18500, 39.0
5.22000, 31.0
5.25500, 39.0
5.29000, 33.0
5.32500, 28.0
5.36000, 17.0
5.39500, 19.0
5.43000, 21.0
5.46500, 13.0
5.50000, 30.0
5.53500, 23.0
5.57000, 21.0
5.60500, 18.0
5.64000, 22.0
5.67500, 17.0
5.71000, 29.0
5.74500, 26.0
5.78000, 11.0
5.81500, 17.0
5.85000, 22.0
5.88500, 22.0
5.92000, 20.0
5.95500, 11.0
5.99000, 22.0
6.02500, 22.0
6.06000, 28.0
6.09500, 7.0
6.13000, 15.0
6.16500, 14.0
6.20000, 16.0
6.23500, 24.0
6.27000, 20.0
6.30500, 9.0
6.34000, 19.0
6.37500, 17.0
6.41000, 16.0
6.44500, 18.0
6.48000, 7.0
6.51500, 15.0
6.55000, 13.0
6.58500, 21.0
6.62000, 11.0
6.65500, 16.0
6.69000, 12.0
6.72500, 14.0
6.76000, 12.0
6.79500, 13.0
6.83000, 11.0
6.86500, 13.0
6.90000, 7.0
6.93500, 25.0
6.97000, 9.0
7.00500, 12.0
7.04000, 16.0
7.07500, 9.0
7.11000, 5.0
7.14500, 16.0
7.18000, 16.0
7.21500, 15.0
7.25000, 8.0
7.28500, 6.0
7.32000, 11.0
7.35500, 11.0
7.39000, 10.0
7.42500, 10.0
7.46000, 8.0
7.49500, 9.0
7.53000, 10.0
7.56500, 7.0
7.60000, 8.0
7.63500, 8.0
7.67000, 9.0
7.70500, 8.0
7.74000, 9.0
7.77500, 6.0
7.81000, 9.0
7.84500, 6.0
7.88000, 8.0
7.91500, 6.0
7.95000, 8.0
7.98500, 3.0
8.02000, 2.0
8.05500, 7.0
8.09000, 5.0
8.12500, 1.0
8.16000, 2.0
8.19500, 6.0
8.23000, 9.0
8.26500, 6.0
8.30000, 8.0
8.33500, 9.0
8.37000, 5.0
8.40500, 6.0
8.44000, 5.0
8.47500, 3.0
8.51000, 5.0
8.54500, 3.0
8.58000, 6.0
8.61500, 2.0
8.65000, 3.0
8.68500, 4.0
8.72000, 3.0
8.75500, 5.0
8.79000, 2.0
8.82500, 3.0
8.86000, 5.0
8.89500, 2.0
8.93000, 2.0
8.96500, 2.0
9.00000, 4.0
9.03500, 1.0
9.07000, 5.0
9.10500, 1.0
9.14000, 2.0
9.17500, 1.0
9.21000, 1.0
9.24500, 1.0
9.28000, 3.0
9.31500, 1.0
9.35000, 0.0
9.38500, 0.0
9.42000, 2.0
9.45500, 1.0
9.49000, 2.0
9.52500, 2.0
9.56000, 1.0
9.59500, 3.0
9.63000, 2.0
9.66500, 0.0
9.70000, 1.0
9.73500, 1.0
9.77000, 1.0
9.80500, 1.0
9.84000, 1.0
9.87500, 0.0
9.91000, 0.0
9.94500, 0.0
9.98000, 1.0
10.01500, 0.0
10.05000, 0.0
10.08500, 0.0
10.12000, 0.0
10.13500, 0.0
#ENDOFDATA   :

File: 20250425_10K_G10_2.txt
#FORMAT      : EMSA/MAS Spectral Data File
#VERSION     : 1.0
#TITLE       : 20250425_10K_G10_2
#DATE        : 24-APR-2025
#TIME        : 09:59
#OWNER       :
#NPOINTS     : 2048.0
#NCOLUMNS    : 1.0
#XUNITS      : keV
#YUNITS      : counts
#DATATYPE    : XY
#XPERCHAN    : 0.005
#OFFSET      : -0.1
#SIGNALTYPE  : EDS
#CHOFFSET    : 20.0
#LIVETIME    : 60.0
#REALTIME    : 61.8849
#BEAMKV      : 10.0
#MAGCAM      : 3300.0
#XTILTSTGE   : 0.0
#AZIMANGLE   : 0.0
#ELEVANGLE   : 29.0
#XPOSITION mm: 0.5138
#YPOSITION mm: -0.6150
#ZPOSITION mm: 13.5353
##OXINSTPT   : 2
##OXINSTSTROB: 67.57
#SPECTRUM    : Spectral Data Starts Here
-0.10000, 0.0
-0.06500, 4.0
-0.03000, 76.0
0.00500, 499.0
0.04000, 1014.0
0.07500, 736.0
0.11000, 194.0
0.14500, 56.0
0.18000, 50.0
0.21500, 76.0
0.25000, 131.0
0.28500, 128.0
0.32000, 77.0
0.35500, 81.0
0.39000, 127.0
0.42500, 265.0
0.46000, 1288.0
0.49500, 4598.0
0.53000, 5988.0
0.56500, 2682.0
0.60000, 432.0
0.63500, 98.0
0.67000, 94.0
0.70500, 106.0
0.74000, 123.0
0.77500, 137.0
0.81000, 158.0
0.84500, 170.0
0.88000, 157.0
0.91500, 169.0
0.95000, 194.0
0.98500, 183.0
1.02000, 210.0
1.05500, 203.0
1.09000, 199.0
1.12500, 176.0
1.16000, 197.0
1.19500, 187.0
1.23000, 208.0
1.26500, 195.0
1.30000, 203.0
1.33500, 210.0
1.37000, 205.0
1.40500, 204.0
1.44000, 205.0
1.47500, 226.0
1.51000, 216.0
1.54500, 222.0
1.58000, 231.0
1.61500, 333.0
1.65000, 1267.0
1.68500, 5420.0
1.72000, 12856.0
1.75500, 14546.0
1.79000, 7690.0
1.82500, 2419.0
1.86000, 803.0
1.89500, 317.0
1.93000, 125.0
1.96500, 91.0
2.00000, 97.0
2.03500, 84.0
2.07000, 80.0
2.10500, 76.0
2.14000, 98.0
2.17500, 97.0
2.21000, 95.0
2.24500, 121.0
2.28000, 125.0
2.31500, 128.0
2.35000, 112.0
2.38500, 93.0
2.42000, 72.0
2.45500, 78.0
2.49000, 82.0
2.52500, 79.0
2.56000, 87.0
2.59500, 62.0
2.63000, 79.0
2.66500, 80.0
2.70000, 68.0
2.73500, 76.0
2.77000, 70.0
2.80500, 68.0
2.84000, 81.0
2.87500, 70.0
2.91000, 72.0
2.94500, 77.0
2.98000, 64.0
3.01500, 70.0
3.05000, 51.0
3.08500, 56.0
3.12000, 63.0
3.15500, 61.0
3.19000, 57.0
3.22500, 67.0
3.26000, 55.0
3.29500, 58.0
3.33000, 60.0
3.36500, 62.0
3.40000, 59.0
3.43500, 63.0
3.47000, 95.0
3.50500, 81.0
3.54000, 63.0
3.57500, 60.0
3.61000, 48.0
3.64500, 53.0
3.68000, 44.0
3.71500, 56.0
3.75000, 50.0
3.78500, 56.0
3.82000, 42.0
3.85500, 54.0
3.89000, 40.0
3.92500, 58.0
3.96000, 43.0
3.99500, 39.0
4.03000, 50.0
4.06500, 38.0
4.10000, 35.0
4.13500, 47.0
4.17000, 44.0
4.20500, 35.0
4.24000, 42.0
4.27500, 36.0
4.31000, 38.0
4.34500, 49.0
4.38000, 40.0
4.41500, 43.0
4.45000, 40.0
4.48500, 35.0
4.52000, 33.0
4.55500, 42.0
4.59000, 33.0
4.62500, 39.0
4.66000, 29.0
4.69500, 43.0
4.73000, 37.0
4.76500, 38.0
4.80000, 42.0
4.83500, 45.0
4.87000, 40.0
4.90500, 30.0
4.94000, 39.0
4.97500, 28.0
5.01000, 26.0
5.04500, 22.0
5.08000, 30.0
5.11500, 34.0
5.15000, 31.0
5.18500, 27.0
5.22000, 27.0
5.25500, 27.0
5.29000, 23.0
5.32500, 29.0
5.36000, 28.0
5.39500, 26.0
5.43000, 26.0
5.46500, 34.0
5.50000, 26.0
5.53500, 19.0
5.57000, 19.0
5.60500, 25.0
5.64000, 20.0
5.67500, 27.0
5.71000, 18.0
5.74500, 20.0
5.78000, 18.0
5.81500, 21.0
5.85000, 17.0
5.88500, 22.0
5.92000, 20.0
5.95500, 16.0
5.99000, 21.0
6.02500, 13.0
6.06000, 21.0
6.09500, 27.0
6.13000, 24.0
6.16500, 18.0
6.20000, 16.0
6.23500, 14.0
6.27000, 13.0
6.30500, 20.0
6.34000, 12.0
6.37500, 17.0
6.41000, 14.0
6.44500, 21.0
6.48000, 13.0
6.51500, 13.0
6.55000, 17.0
6.58500, 11.0
6.62000, 14.0
6.65500, 13.0
6.69000, 10.0
6.72500, 10.0
6.76000, 16.0
6.79500, 11.0
6.83000, 12.0
6.86500, 17.0
6.90000, 8.0
6.93500, 11.0
6.97000, 14.0
7.00500, 15.0
7.04000, 11.0
7.07500, 12.0
7.11000, 11.0
7.14500, 18.0
7.18000, 11.0
7.21500, 16.0
7.25000, 8.0
7.28500, 9.0
7.32000, 13.0
7.35500, 7.0
7.39000, 11.0
7.42500, 7.0
7.46000, 10.0
7.49500, 5.0
7.53000, 7.0
7.56500, 14.0
7.60000, 8.0
7.63500, 9.0
7.67000, 9.0
7.70500, 10.0
7.74000, 5.0
7.77500, 8.0
7.81000, 3.0
7.84500, 10.0
7.88000, 7.0
7.91500, 9.0
7.95000, 5.0
7.98500, 5.0
8.02000, 7.0
8.05500, 8.0
8.09000, 4.0
8.12500, 1.0
8.16000, 10.0
8.19500, 5.0
8.23000, 5.0
8.26500, 7.0
8.30000, 2.0
8.33500, 1.0
8.37000, 2.0
8.40500, 2.0
8.44000, 7.0
8.47500, 2.0
8.51000, 5.0
8.54500, 2.0
8.58000, 3.0
8.61500, 5.0
8.65000, 7.0
8.68500, 3.0
8.72000, 5.0
8.75500, 6.0
8.79000, 4.0
8.82500, 1.0
8.86000, 1.0
8.89500, 6.0
8.93000, 4.0
8.96500, 1.0
9.00000, 3.0
9.03500, 4.0
9.07000, 2.0
9.10500, 2.0
9.14000, 0.0
9.17500, 2.0
9.21000, 5.0
9.24500, 0.0
9.28000, 1.0
9.31500, 2.0
9.35000, 1.0
9.38500, 0.0
9.42000, 4.0
9.45500, 2.0
9.49000, 3.0
9.52500, 1.0
9.56000, 0.0
9.59500, 3.0
9.63000, 1.0
9.66500, 0.0
9.70000, 0.0
9.73500, 2.0
9.77000, 0.0
9.80500, 0.0
9.84000, 0.0
9.87500, 0.0
9.91000, 1.0
9.94500, 0.0
9.98000, 0.0
10.01500, 1.0
10.05000, 0.0
10.08500, 0.0
10.12000, 0.0
10.13500, 0.0
#ENDOFDATA   :

File: 20250425_10K_H12_1.txt
#FORMAT      : EMSA/MAS Spectral Data File
#VERSION     : 1.0
#TITLE       : 20250425_10K_H12_1
#DATE        : 24-APR-2025
#TIME        : 09:34
#OWNER       :
#NPOINTS     : 2048.0
#NCOLUMNS    : 1.0
#XUNITS      : keV
#YUNITS      : counts
#DATATYPE    : XY
#XPERCHAN    : 0.005
#OFFSET      : -0.1
#SIGNALTYPE  : EDS
#CHOFFSET    : 20.0
#LIVETIME    : 60.0
#REALTIME    : 61.4916
#BEAMKV      : 10.0
#MAGCAM      : 4000.0
#XTILTSTGE   : 0.0
#AZIMANGLE   : 0.0
#ELEVANGLE   : 29.0
#XPOSITION mm: 0.7570
#YPOSITION mm: 0.1853
#ZPOSITION mm: 13.4437
##OXINSTPT   : 2
##OXINSTSTROB: 67.53
##OXINSTELEMS: 42,16,14,8
##OXINSTLABEL: 42, 2.293, Mo
##OXINSTLABEL: 42, 2.395, Mo
##OXINSTLABEL: 42, 2.120, Mo
##OXINSTLABEL: 42, 2.831, Mo
##OXINSTLABEL: 42, 2.016, Mo
##OXINSTLABEL: 42, 0.193, Mo
##OXINSTLABEL: 16, 2.308, S
##OXINSTLABEL: 16, 2.464, S
##OXINSTLABEL: 14, 1.740, Si
##OXINSTLABEL: 8, 0.525, O
#SPECTRUM    : Spectral Data Starts Here
-0.10000, 0.0
-0.06500, 2.0
-0.03000, 73.0
0.00500, 472.0
0.04000, 1011.0
0.07500, 743.0
0.11000, 290.0
0.14500, 366.0
0.18000, 399.0
0.21500, 289.0
0.25000, 393.0
0.28500, 433.0
0.32000, 202.0
0.35500, 91.0
0.39000, 91.0
0.42500, 124.0
0.46000, 309.0
0.49500, 942.0
0.53000, 1238.0
0.56500, 643.0
0.60000, 189.0
0.63500, 134.0
0.67000, 130.0
0.70500, 132.0
0.74000, 151.0
0.77500, 164.0
0.81000, 171.0
0.84500, 201.0
0.88000, 164.0
0.91500, 211.0
0.95000, 183.0
0.98500, 196.0
1.02000, 207.0
1.05500, 174.0
1.09000, 214.0
1.12500, 190.0
1.16000, 193.0
1.19500, 206.0
1.23000, 196.0
1.26500, 194.0
1.30000, 187.0
1.33500, 189.0
1.37000, 200.0
1.40500, 182.0
1.44000, 204.0
1.47500, 232.0
1.51000, 195.0
1.54500, 222.0
1.58000, 216.0
1.61500, 275.0
1.65000, 741.0
1.68500, 3044.0
1.72000, 7138.0
1.75500, 8072.0
1.79000, 4300.0
1.82500, 1423.0
1.86000, 519.0
1.89500, 254.0
1.93000, 154.0
1.96500, 138.0
2.00000, 148.0
2.03500, 162.0
2.07000, 142.0
2.10500, 127.0
2.14000, 140.0
2.17500, 173.0
2.21000, 346.0
2.24500, 1006.0
2.28000, 2065.0
2.31500, 2507.0
2.35000, 1774.0
2.38500, 976.0
2.42000, 596.0
2.45500, 466.0
2.49000, 313.0
2.52500, 187.0
2.56000, 116.0
2.59500, 92.0
2.63000, 99.0
2.66500, 83.0
2.70000, 82.0
2.73500, 68.0
2.77000, 81.0
2.80500, 95.0
2.84000, 81.0
2.87500, 74.0
2.91000, 78.0
2.94500, 78.0
2.98000, 74.0
3.01500, 78.0
3.05000, 67.0
3.08500, 74.0
3.12000, 62.0
3.15500, 64.0
3.19000, 65.0
3.22500, 59.0
3.26000, 56.0
3.29500, 64.0
3.33000, 56.0
3.36500, 59.0
3.40000, 58.0
3.43500, 64.0
3.47000, 65.0
3.50500, 64.0
3.54000, 62.0
3.57500, 54.0
3.61000, 70.0
3.64500, 48.0
3.68000, 61.0
3.71500, 54.0
3.75000, 60.0
3.78500, 66.0
3.82000, 55.0
3.85500, 55.0
3.89000, 54.0
3.92500, 43.0
3.96000, 56.0
3.99500, 46.0
4.03000, 51.0
4.06500, 48.0
4.10000, 47.0
4.13500, 41.0
4.17000, 46.0
4.20500, 52.0
4.24000, 37.0
4.27500, 36.0
4.31000, 38.0
4.34500, 48.0
4.38000, 34.0
4.41500, 40.0
4.45000, 36.0
4.48500, 47.0
4.52000, 44.0
4.55500, 45.0
4.59000, 41.0
4.62500, 37.0
4.66000, 53.0
4.69500, 43.0
4.73000, 33.0
4.76500, 38.0
4.80000, 36.0
4.83500, 43.0
4.87000, 33.0
4.90500, 48.0
4.94000, 35.0
4.97500, 40.0
5.01000, 23.0
5.04500, 39.0
5.08000, 32.0
5.11500, 33.0
5.15000, 32.0
5.18500, 38.0
5.22000, 24.0
5.25500, 30.0
5.29000, 30.0
5.32500, 25.0
5.36000, 33.0
5.39500, 32.0
5.43000, 32.0
5.46500, 29.0
5.50000, 26.0
5.53500, 28.0
5.57000, 34.0
5.60500, 25.0
5.64000, 29.0
5.67500, 27.0
5.71000, 17.0
5.74500, 18.0
5.78000, 22.0
5.81500, 25.0
5.85000, 18.0
5.88500, 20.0
5.92000, 21.0
5.95500, 27.0
5.99000, 23.0
6.02500, 18.0
6.06000, 24.0
6.09500, 22.0
6.13000, 15.0
6.16500, 23.0
6.20000, 18.0
6.23500, 16.0
6.27000, 16.0
6.30500, 15.0
6.34000, 16.0
6.37500, 16.0
6.41000, 22.0
6.44500, 21.0
6.48000, 17.0
6.51500, 18.0
6.55000, 17.0
6.58500, 18.0
6.62000, 11.0
6.65500, 22.0
6.69000, 8.0
6.72500, 11.0
6.76000, 21.0
6.79500, 20.0
6.83000, 14.0
6.86500, 11.0
6.90000, 13.0
6.93500, 10.0
6.97000, 13.0
7.00500, 12.0
7.04000, 13.0
7.07500, 14.0
7.11000, 19.0
7.14500, 13.0
7.18000, 16.0
7.21500, 20.0
7.25000, 17.0
7.28500, 22.0
7.32000, 9.0
7.35500, 17.0
7.39000, 16.0
7.42500, 15.0
7.46000, 11.0
7.49500, 9.0
7.53000, 18.0
7.56500, 7.0
7.60000, 6.0
7.63500, 13.0
7.67000, 9.0
7.70500, 7.0
7.74000, 16.0
7.77500, 7.0
7.81000, 10.0
7.84500, 18.0
7.88000, 14.0
7.91500, 11.0
7.95000, 15.0
7.98500, 14.0
8.02000, 2.0
8.05500, 8.0
8.09000, 11.0
8.12500, 12.0
8.16000, 9.0
8.19500, 10.0
8.23000, 8.0
8.26500, 10.0
8.30000, 9.0
8.33500, 6.0
8.37000, 7.0
8.40500, 12.0
8.44000, 7.0
8.47500, 13.0
8.51000, 9.0
8.54500, 9.0
8.58000, 12.0
8.61500, 2.0
8.65000, 15.0
8.68500, 8.0
8.72000, 6.0
8.75500, 9.0
8.79000, 6.0
8.82500, 4.0
8.86000, 7.0
8.89500, 13.0
8.93000, 8.0
8.96500, 5.0
9.00000, 3.0
9.03500, 3.0
9.07000, 5.0
9.10500, 1.0
9.14000, 1.0
9.17500, 6.0
9.21000, 1.0
9.24500, 7.0
9.28000, 4.0
9.31500, 7.0
9.35000, 8.0
9.38500, 4.0
9.42000, 3.0
9.45500, 4.0
9.49000, 2.0
9.52500, 4.0
9.56000, 1.0
9.59500, 4.0
9.63000, 1.0
9.66500, 3.0
9.70000, 5.0
9.73500, 4.0
9.77000, 2.0
9.80500, 4.0
9.84000, 5.0
9.87500, 2.0
9.91000, 2.0
9.94500, 3.0
9.98000, 2.0
10.01500, 1.0
10.05000, 0.0
10.08500, 1.0
10.12000, 0.0
10.13500, 0.0
#ENDOFDATA   :

File: 20250425_10K_H12_2.txt
#FORMAT      : EMSA/MAS Spectral Data File
#VERSION     : 1.0
#TITLE       : 20250425_10K_H12_2
#DATE        : 24-APR-2025
#TIME        : 09:35
#OWNER       :
#NPOINTS     : 2048.0
#NCOLUMNS    : 1.0
#XUNITS      : keV
#YUNITS      : counts
#DATATYPE    : XY
#XPERCHAN    : 0.005
#OFFSET      : -0.1
#SIGNALTYPE  : EDS
#CHOFFSET    : 20.0
#LIVETIME    : 60.0
#REALTIME    : 61.4762
#BEAMKV      : 10.0
#MAGCAM      : 4000.0
#XTILTSTGE   : 0.0
#AZIMANGLE   : 0.0
#ELEVANGLE   : 29.0
#XPOSITION mm: 0.7570
#YPOSITION mm: 0.1853
#ZPOSITION mm: 13.4437
##OXINSTPT   : 2
##OXINSTSTROB: 67.48
##OXINSTELEMS: 42,16,14,8
##OXINSTLABEL: 42, 2.293, Mo
##OXINSTLABEL: 42, 2.395, Mo
##OXINSTLABEL: 42, 2.120, Mo
##OXINSTLABEL: 42, 2.831, Mo
##OXINSTLABEL: 42, 2.016, Mo
##OXINSTLABEL: 42, 0.193, Mo
##OXINSTLABEL: 16, 2.308, S
##OXINSTLABEL: 16, 2.464, S
##OXINSTLABEL: 14, 1.740, Si
##OXINSTLABEL: 8, 0.525, O
#SPECTRUM    : Spectral Data Starts Here
-0.10000, 0.0
-0.06500, 2.0
-0.03000, 74.0
0.00500, 483.0
0.04000, 1057.0
0.07500, 773.0
0.11000, 311.0
0.14500, 387.0
0.18000, 369.0
0.21500, 297.0
0.25000, 399.0
0.28500, 443.0
0.32000, 187.0
0.35500, 96.0
0.39000, 102.0
0.42500, 119.0
0.46000, 325.0
0.49500, 919.0
0.53000, 1345.0
0.56500, 696.0
0.60000, 207.0
0.63500, 136.0
0.67000, 115.0
0.70500, 150.0
0.74000, 147.0
0.77500, 164.0
0.81000, 161.0
0.84500, 178.0
0.88000, 184.0
0.91500, 195.0
0.95000, 178.0
0.98500, 199.0
1.02000, 208.0
1.05500, 191.0
1.09000, 198.0
1.12500, 214.0
1.16000, 202.0
1.19500, 184.0
1.23000, 192.0
1.26500, 205.0
1.30000, 200.0
1.33500, 195.0
1.37000, 202.0
1.40500, 195.0
1.44000, 206.0
1.47500, 212.0
1.51000, 222.0
1.54500, 190.0
1.58000, 194.0
1.61500, 250.0
1.65000, 739.0
1.68500, 3097.0
1.72000, 6987.0
1.75500, 7806.0
1.79000, 4260.0
1.82500, 1481.0
1.86000, 510.0
1.89500, 246.0
1.93000, 127.0
1.96500, 143.0
2.00000, 175.0
2.03500, 157.0
2.07000, 123.0
2.10500, 127.0
2.14000, 130.0
2.17500, 165.0
2.21000, 353.0
2.24500, 996.0
2.28000, 2074.0
2.31500, 2410.0
2.35000, 1788.0
2.38500, 969.0
2.42000, 586.0
2.45500, 402.0
2.49000, 323.0
2.52500, 221.0
2.56000, 137.0
2.59500, 100.0
2.63000, 90.0
2.66500, 89.0
2.70000, 68.0
2.73500, 94.0
2.77000, 80.0
2.80500, 82.0
2.84000, 87.0
2.87500, 84.0
2.91000, 56.0
2.94500, 63.0
2.98000, 61.0
3.01500, 70.0
3.05000, 54.0
3.08500, 68.0
3.12000, 81.0
3.15500, 66.0
3.19000, 61.0
3.22500, 57.0
3.26000, 58.0
3.29500, 66.0
3.33000, 61.0
3.36500, 54.0
3.40000, 57.0
3.43500, 76.0
3.47000, 63.0
3.50500, 64.0
3.54000, 65.0
3.57500, 56.0
3.61000, 64.0
3.64500, 50.0
3.68000, 47.0
3.71500, 48.0
3.75000, 45.0
3.78500, 50.0
3.82000, 52.0
3.85500, 43.0
3.89000, 47.0
3.92500, 42.0
3.96000, 50.0
3.99500, 65.0
4.03000, 43.0
4.06500, 46.0
4.10000, 46.0
4.13500, 54.0
4.17000, 36.0
4.20500, 42.0
4.24000, 47.0
4.27500, 38.0
4.31000, 54.0
4.34500, 37.0
4.38000, 47.0
4.41500, 49.0
4.45000, 34.0
4.48500, 40.0
4.52000, 38.0
4.55500, 41.0
4.59000, 39.0
4.62500, 33.0
4.66000, 27.0
4.69500, 29.0
4.73000, 29.0
4.76500, 32.0
4.80000, 37.0
4.83500, 35.0
4.87000, 28.0
4.90500, 31.0
4.94000, 33.0
4.97500, 32.0
5.01000, 27.0
5.04500, 39.0
5.08000, 24.0
5.11500, 28.0
5.15000, 23.0
5.18500, 31.0
5.22000, 31.0
5.25500, 37.0
5.29000, 30.0
5.32500, 33.0
5.36000, 30.0
5.39500, 33.0
5.43000, 31.0
5.46500, 26.0
5.50000, 37.0
5.53500, 18.0
5.57000, 25.0
5.60500, 31.0
5.64000, 12.0
5.67500, 25.0
5.71000, 21.0
5.74500, 28.0
5.78000, 15.0
5.81500, 34.0
5.85000, 25.0
5.88500, 19.0
5.92000, 19.0
5.95500, 31.0
5.99000, 23.0
6.02500, 17.0
6.06000, 22.0
6.09500, 22.0
6.13000, 16.0
6.16500, 21.0
6.20000, 20.0
6.23500, 17.0
6.27000, 21.0
6.30500, 11.0
6.34000, 21.0
6.37500, 20.0
6.41000, 16.0
6.44500, 13.0
6.48000, 16.0
6.51500, 19.0
6.55000, 21.0
6.58500, 14.0
6.62000, 12.0
6.65500, 20.0
6.69000, 15.0
6.72500, 24.0
6.76000, 22.0
6.79500, 17.0
6.83000, 14.0
6.86500, 12.0
6.90000, 11.0
6.93500, 10.0
6.97000, 11.0
7.00500, 16.0
7.04000, 12.0
7.07500, 20.0
7.11000, 24.0
7.14500, 17.0
7.18000, 11.0
7.21500, 9.0
7.25000, 11.0
7.28500, 14.0
7.32000, 9.0
7.35500, 14.0
7.39000, 12.0
7.42500, 12.0
7.46000, 12.0
7.49500, 7.0
7.53000, 7.0
7.56500, 10.0
7.60000, 12.0
7.63500, 9.0
7.67000, 8.0
7.70500, 9.0
7.74000, 14.0
7.77500, 15.0
7.81000, 10.0
7.84500, 12.0
7.88000, 6.0
7.91500, 11.0
7.95000, 9.0
7.98500, 8.0
8.02000, 8.0
8.05500, 12.0
8.09000, 10.0
8.12500, 11.0
8.16000, 3.0
8.19500, 3.0
8.23000, 16.0
8.26500, 10.0
8.30000, 4.0
8.33500, 10.0
8.37000, 4.0
8.40500, 5.0
8.44000, 6.0
8.47500, 7.0
8.51000, 8.0
8.54500, 9.0
8.58000, 5.0
8.61500, 7.0
8.65000, 3.0
8.68500, 3.0
8.72000, 8.0
8.75500, 8.0
8.79000, 14.0
8.82500, 9.0
8.86000, 9.0
8.89500, 9.0
8.93000, 4.0
8.96500, 6.0
9.00000, 8.0
9.03500, 5.0
9.07000, 3.0
9.10500, 5.0
9.14000, 5.0
9.17500, 3.0
9.21000, 5.0
9.24500, 7.0
9.28000, 1.0
9.31500, 5.0
9.35000, 3.0
9.38500, 7.0
9.42000, 6.0
9.45500, 4.0
9.49000, 6.0
9.52500, 11.0
9.56000, 3.0
9.59500, 1.0
9.63000, 2.0
9.66500, 2.0
9.70000, 4.0
9.73500, 2.0
9.77000, 3.0
9.80500, 3.0
9.84000, 5.0
9.87500, 1.0
9.91000, 1.0
9.94500, 3.0
9.98000, 2.0
10.01500, 1.0
10.05000, 0.0
10.08500, 1.0
10.12000, 1.0
10.13500, 0.0
#ENDOFDATA   :