Folder: Sommarjobb-2024/spectrums WS2 30keV (part 3)

File: B6_30keV_300924_A2_2.txt
#FORMAT      : EMSA/MAS Spectral Data File
#VERSION     : 1.0
#TITLE       : B6_10keV_300924_A2_2
#DATE        : 30-SEP-2024
#TIME        : 15:30
#OWNER       :
#NPOINTS     : 2048.0
#NCOLUMNS    : 1.0
#XUNITS      : keV
#YUNITS      : counts
#DATATYPE    : XY
#XPERCHAN    : 0.02
#OFFSET      : -0.4
#SIGNALTYPE  : EDS
#CHOFFSET    : 20.0
#LIVETIME    : 60.0123
#REALTIME    : 75.2121
#BEAMKV      : 30.0
#MAGCAM      : 3700.0
#XTILTSTGE   : 0.0
#AZIMANGLE   : 0.0
#ELEVANGLE   : 25.5
#XPOSITION mm: 2.0353
#YPOSITION mm: 0.4190
#ZPOSITION mm: 12.8688
##OXINSTPT   : 2
##OXINSTSTROB: 74.68
##OXINSTELEMS: 30,8,16
##OXINSTLABEL: 30, 8.639, Zn K?1
##OXINSTLABEL: 30, 9.572, Zn K?1
##OXINSTLABEL: 30, 1.012, Zn L?1,2
##OXINSTLABEL: 30, 0.906, Zn L?
##OXINSTLABEL: 30, 0.884, Zn Ll
##OXINSTLABEL: 8, 0.525, O K?1
##OXINSTLABEL: 16, 2.308, S K?1
##OXINSTLABEL: 16, 2.464, S K?1
#SPECTRUM    : Spectral Data Starts Here
-0.40000, 0.0
-0.26000, 0.0
-0.12000, 0.0
0.02000, 2200.0
0.16000, 466.0
0.30000, 714.0
0.44000, 2217.0
0.58000, 4994.0
0.72000, 702.0
0.86000, 1082.0
1.00000, 1646.0
1.14000, 2246.0
1.28000, 2872.0
1.42000, 4001.0
1.56000, 5841.0
1.70000, 355186.0
1.84000, 70887.0
1.98000, 808.0
2.12000, 715.0
2.26000, 1720.0
2.40000, 949.0
2.54000, 913.0
2.68000, 914.0
2.82000, 1017.0
2.96000, 1142.0
3.10000, 1190.0
3.24000, 1288.0
3.38000, 2695.0
3.52000, 10465.0
3.66000, 1461.0
3.80000, 1148.0
3.94000, 1169.0
4.08000, 1218.0
4.22000, 1221.0
4.36000, 1158.0
4.50000, 1166.0
4.64000, 1169.0
4.78000, 1153.0
4.92000, 1139.0
5.06000, 1126.0
5.20000, 1309.0
5.34000, 1171.0
5.48000, 1071.0
5.62000, 1038.0
5.76000, 1044.0
5.90000, 985.0
6.04000, 959.0
6.18000, 923.0
6.32000, 974.0
6.46000, 927.0
6.60000, 911.0
6.74000, 887.0
6.88000, 876.0
7.02000, 862.0
7.16000, 814.0
7.30000, 814.0
7.44000, 767.0
7.58000, 782.0
7.72000, 740.0
7.86000, 716.0
8.00000, 708.0
8.14000, 703.0
8.28000, 732.0
8.42000, 870.0
8.56000, 662.0
8.70000, 639.0
8.84000, 640.0
8.98000, 598.0
9.12000, 589.0
9.26000, 623.0
9.40000, 575.0
9.54000, 578.0
9.68000, 655.0
9.82000, 570.0
9.96000, 556.0
10.10000, 516.0
10.24000, 470.0
10.38000, 463.0
10.52000, 445.0
10.66000, 441.0
10.80000, 436.0
10.94000, 431.0
11.08000, 437.0
11.22000, 438.0
11.36000, 406.0
11.50000, 375.0
11.64000, 375.0
11.78000, 380.0
11.92000, 355.0
12.06000, 359.0
12.20000, 332.0
12.34000, 335.0
12.48000, 322.0
12.62000, 292.0
12.76000, 300.0
12.90000, 285.0
13.04000, 273.0
13.18000, 268.0
13.32000, 263.0
13.46000, 248.0
13.60000, 230.0
13.74000, 229.0
13.88000, 228.0
14.02000, 217.0
14.16000, 234.0
14.30000, 205.0
14.44000, 206.0
14.58000, 223.0
14.72000, 185.0
14.86000, 189.0
15.00000, 167.0
15.14000, 163.0
15.28000, 158.0
15.42000, 151.0
15.56000, 145.0
15.70000, 149.0
15.84000, 139.0
15.98000, 131.0
16.12000, 132.0
16.26000, 138.0
16.40000, 131.0
16.54000, 119.0
16.68000, 119.0
16.82000, 113.0
16.96000, 111.0
17.10000, 106.0
17.24000, 94.0
17.38000, 92.0
17.52000, 89.0
17.66000, 88.0
17.80000, 84.0
17.94000, 88.0
18.08000, 70.0
18.22000, 73.0
18.36000, 65.0
18.50000, 73.0
18.64000, 58.0
18.78000, 70.0
18.92000, 69.0
19.06000, 63.0
19.20000, 63.0
19.34000, 59.0
19.48000, 66.0
19.62000, 52.0
19.76000, 54.0
19.90000, 53.0
20.04000, 47.0
20.18000, 49.0
20.32000, 45.0
20.46000, 38.0
20.60000, 37.0
20.74000, 47.0
20.88000, 38.0
21.02000, 36.0
21.16000, 35.0
21.30000, 31.0
21.44000, 26.0
21.58000, 34.0
21.72000, 26.0
21.86000, 26.0
22.00000, 28.0
22.14000, 20.0
22.28000, 24.0
22.42000, 22.0
22.56000, 21.0
22.70000, 25.0
22.84000, 21.0
22.98000, 17.0
23.12000, 16.0
23.26000, 22.0
23.40000, 16.0
23.54000, 21.0
23.68000, 13.0
23.82000, 18.0
23.96000, 12.0
24.10000, 18.0
24.24000, 10.0
24.38000, 17.0
24.52000, 12.0
24.66000, 14.0
24.80000, 12.0
24.94000, 12.0
25.08000, 12.0
25.22000, 10.0
25.36000, 10.0
25.50000, 5.0
25.64000, 8.0
25.78000, 7.0
25.92000, 12.0
26.06000, 6.0
26.20000, 7.0
26.34000, 5.0
26.48000, 3.0
26.62000, 7.0
26.76000, 9.0
26.90000, 2.0
27.04000, 4.0
27.18000, 2.0
27.32000, 3.0
27.46000, 3.0
27.60000, 2.0
27.74000, 3.0
27.88000, 4.0
28.02000, 4.0
28.16000, 1.0
28.30000, 2.0
28.44000, 1.0
28.58000, 2.0
28.72000, 2.0
28.86000, 2.0
29.00000, 2.0
29.14000, 0.0
29.28000, 1.0
29.42000, 2.0
29.56000, 0.0
29.70000, 0.0
29.84000, 0.0
29.98000, 1.0
30.12000, 1.0
30.26000, 1.0
30.40000, 0.0
30.54000, 0.0
30.68000, 0.0
30.82000, 0.0
30.96000, 0.0
31.10000, 0.0
31.24000, 0.0
31.38000, 0.0
31.52000, 0.0
31.66000, 0.0
31.80000, 0.0
31.94000, 0.0
32.08000, 0.0
32.22000, 0.0
32.36000, 0.0
32.50000, 0.0
32.64000, 0.0
32.78000, 0.0
32.92000, 0.0
33.06000, 0.0
33.20000, 0.0
33.34000, 0.0
33.48000, 1.0
33.62000, 1.0
33.76000, 0.0
33.90000, 1.0
34.04000, 0.0
34.18000, 0.0
34.32000, 0.0
34.46000, 0.0
34.60000, 0.0
34.74000, 0.0
34.88000, 0.0
35.02000, 0.0
35.16000, 0.0
35.30000, 0.0
35.44000, 0.0
35.58000, 0.0
35.72000, 0.0
35.86000, 0.0
36.00000, 0.0
36.14000, 0.0
36.28000, 0.0
36.42000, 0.0
36.56000, 0.0
36.70000, 0.0
36.84000, 0.0
36.98000, 0.0
37.12000, 0.0
37.26000, 0.0
37.40000, 0.0
37.54000, 0.0
37.68000, 0.0
37.82000, 0.0
37.96000, 0.0
38.10000, 0.0
38.24000, 0.0
38.38000, 0.0
38.52000, 0.0
38.66000, 1.0
38.80000, 0.0
38.94000, 0.0
39.08000, 1.0
39.22000, 0.0
39.36000, 0.0
39.50000, 0.0
39.64000, 0.0
39.78000, 0.0
39.92000, 0.0
40.06000, 0.0
40.20000, 0.0
40.34000, 0.0
40.48000, 0.0
40.54000, 0.0
#ENDOFDATA   :

File: B6_30keV_300924_A3_1.txt
#FORMAT      : EMSA/MAS Spectral Data File
#VERSION     : 1.0
#TITLE       : B6_10keV_300924_A3_1
#DATE        : 30-SEP-2024
#TIME        : 15:35
#OWNER       :
#NPOINTS     : 2048.0
#NCOLUMNS    : 1.0
#XUNITS      : keV
#YUNITS      : counts
#DATATYPE    : XY
#XPERCHAN    : 0.02
#OFFSET      : -0.4
#SIGNALTYPE  : EDS
#CHOFFSET    : 20.0
#LIVETIME    : 60.0405
#REALTIME    : 75.4215
#BEAMKV      : 30.0
#MAGCAM      : 4000.0
#XTILTSTGE   : 0.0
#AZIMANGLE   : 0.0
#ELEVANGLE   : 25.5
#XPOSITION mm: 2.0360
#YPOSITION mm: 0.3273
#ZPOSITION mm: 12.8672
##OXINSTPT   : 2
##OXINSTSTROB: 74.73
##OXINSTELEMS: 30,8,16
##OXINSTLABEL: 30, 8.639, Zn K?1
##OXINSTLABEL: 30, 9.572, Zn K?1
##OXINSTLABEL: 30, 1.012, Zn L?1,2
##OXINSTLABEL: 30, 0.906, Zn L?
##OXINSTLABEL: 30, 0.884, Zn Ll
##OXINSTLABEL: 8, 0.525, O K?1
##OXINSTLABEL: 16, 2.308, S K?1
##OXINSTLABEL: 16, 2.464, S K?1
#SPECTRUM    : Spectral Data Starts Here
-0.40000, 0.0
-0.26000, 0.0
-0.12000, 0.0
0.02000, 2241.0
0.16000, 372.0
0.30000, 705.0
0.44000, 2246.0
0.58000, 5471.0
0.72000, 647.0
0.86000, 1061.0
1.00000, 1647.0
1.14000, 2229.0
1.28000, 2793.0
1.42000, 3939.0
1.56000, 5906.0
1.70000, 361472.0
1.84000, 71655.0
1.98000, 712.0
2.12000, 621.0
2.26000, 1271.0
2.40000, 782.0
2.54000, 837.0
2.68000, 890.0
2.82000, 1004.0
2.96000, 1070.0
3.10000, 1178.0
3.24000, 1227.0
3.38000, 2767.0
3.52000, 10887.0
3.66000, 1508.0
3.80000, 1107.0
3.94000, 1130.0
4.08000, 1193.0
4.22000, 1193.0
4.36000, 1158.0
4.50000, 1149.0
4.64000, 1118.0
4.78000, 1149.0
4.92000, 1184.0
5.06000, 1136.0
5.20000, 1275.0
5.34000, 1145.0
5.48000, 1035.0
5.62000, 986.0
5.76000, 1040.0
5.90000, 1018.0
6.04000, 984.0
6.18000, 957.0
6.32000, 957.0
6.46000, 886.0
6.60000, 923.0
6.74000, 878.0
6.88000, 832.0
7.02000, 853.0
7.16000, 794.0
7.30000, 820.0
7.44000, 807.0
7.58000, 789.0
7.72000, 744.0
7.86000, 730.0
8.00000, 691.0
8.14000, 696.0
8.28000, 691.0
8.42000, 681.0
8.56000, 684.0
8.70000, 649.0
8.84000, 614.0
8.98000, 615.0
9.12000, 592.0
9.26000, 576.0
9.40000, 566.0
9.54000, 570.0
9.68000, 524.0
9.82000, 536.0
9.96000, 494.0
10.10000, 515.0
10.24000, 467.0
10.38000, 449.0
10.52000, 469.0
10.66000, 429.0
10.80000, 432.0
10.94000, 418.0
11.08000, 406.0
11.22000, 433.0
11.36000, 383.0
11.50000, 369.0
11.64000, 358.0
11.78000, 373.0
11.92000, 346.0
12.06000, 336.0
12.20000, 328.0
12.34000, 324.0
12.48000, 292.0
12.62000, 300.0
12.76000, 281.0
12.90000, 282.0
13.04000, 272.0
13.18000, 280.0
13.32000, 248.0
13.46000, 262.0
13.60000, 235.0
13.74000, 240.0
13.88000, 219.0
14.02000, 211.0
14.16000, 206.0
14.30000, 199.0
14.44000, 198.0
14.58000, 191.0
14.72000, 187.0
14.86000, 171.0
15.00000, 160.0
15.14000, 163.0
15.28000, 160.0
15.42000, 158.0
15.56000, 152.0
15.70000, 157.0
15.84000, 132.0
15.98000, 139.0
16.12000, 122.0
16.26000, 126.0
16.40000, 124.0
16.54000, 126.0
16.68000, 118.0
16.82000, 101.0
16.96000, 108.0
17.10000, 111.0
17.24000, 109.0
17.38000, 89.0
17.52000, 96.0
17.66000, 84.0
17.80000, 87.0
17.94000, 78.0
18.08000, 75.0
18.22000, 74.0
18.36000, 72.0
18.50000, 71.0
18.64000, 70.0
18.78000, 70.0
18.92000, 66.0
19.06000, 54.0
19.20000, 56.0
19.34000, 62.0
19.48000, 51.0
19.62000, 48.0
19.76000, 55.0
19.90000, 45.0
20.04000, 43.0
20.18000, 44.0
20.32000, 45.0
20.46000, 49.0
20.60000, 43.0
20.74000, 39.0
20.88000, 38.0
21.02000, 33.0
21.16000, 38.0
21.30000, 33.0
21.44000, 26.0
21.58000, 27.0
21.72000, 22.0
21.86000, 26.0
22.00000, 26.0
22.14000, 33.0
22.28000, 19.0
22.42000, 22.0
22.56000, 20.0
22.70000, 24.0
22.84000, 19.0
22.98000, 21.0
23.12000, 20.0
23.26000, 19.0
23.40000, 19.0
23.54000, 16.0
23.68000, 10.0
23.82000, 9.0
23.96000, 16.0
24.10000, 13.0
24.24000, 11.0
24.38000, 13.0
24.52000, 13.0
24.66000, 11.0
24.80000, 12.0
24.94000, 10.0
25.08000, 15.0
25.22000, 9.0
25.36000, 7.0
25.50000, 8.0
25.64000, 9.0
25.78000, 9.0
25.92000, 10.0
26.06000, 5.0
26.20000, 11.0
26.34000, 6.0
26.48000, 2.0
26.62000, 4.0
26.76000, 8.0
26.90000, 5.0
27.04000, 1.0
27.18000, 3.0
27.32000, 3.0
27.46000, 5.0
27.60000, 5.0
27.74000, 4.0
27.88000, 1.0
28.02000, 2.0
28.16000, 0.0
28.30000, 1.0
28.44000, 2.0
28.58000, 3.0
28.72000, 1.0
28.86000, 4.0
29.00000, 0.0
29.14000, 0.0
29.28000, 0.0
29.42000, 0.0
29.56000, 1.0
29.70000, 0.0
29.84000, 2.0
29.98000, 1.0
30.12000, 0.0
30.26000, 0.0
30.40000, 1.0
30.54000, 0.0
30.68000, 0.0
30.82000, 0.0
30.96000, 2.0
31.10000, 1.0
31.24000, 0.0
31.38000, 0.0
31.52000, 0.0
31.66000, 1.0
31.80000, 0.0
31.94000, 1.0
32.08000, 0.0
32.22000, 0.0
32.36000, 0.0
32.50000, 0.0
32.64000, 0.0
32.78000, 1.0
32.92000, 0.0
33.06000, 0.0
33.20000, 0.0
33.34000, 0.0
33.48000, 0.0
33.62000, 0.0
33.76000, 1.0
33.90000, 0.0
34.04000, 0.0
34.18000, 0.0
34.32000, 0.0
34.46000, 0.0
34.60000, 0.0
34.74000, 0.0
34.88000, 0.0
35.02000, 0.0
35.16000, 1.0
35.30000, 0.0
35.44000, 1.0
35.58000, 0.0
35.72000, 0.0
35.86000, 0.0
36.00000, 0.0
36.14000, 0.0
36.28000, 0.0
36.42000, 0.0
36.56000, 0.0
36.70000, 0.0
36.84000, 0.0
36.98000, 0.0
37.12000, 0.0
37.26000, 0.0
37.40000, 0.0
37.54000, 0.0
37.68000, 0.0
37.82000, 0.0
37.96000, 0.0
38.10000, 0.0
38.24000, 0.0
38.38000, 0.0
38.52000, 0.0
38.66000, 0.0
38.80000, 0.0
38.94000, 0.0
39.08000, 0.0
39.22000, 0.0
39.36000, 0.0
39.50000, 0.0
39.64000, 0.0
39.78000, 0.0
39.92000, 0.0
40.06000, 0.0
40.20000, 0.0
40.34000, 0.0
40.48000, 0.0
40.54000, 0.0
#ENDOFDATA   :

File: B6_30keV_300924_A3_2.txt
#FORMAT      : EMSA/MAS Spectral Data File
#VERSION     : 1.0
#TITLE       : B6_10keV_300924_A3_2
#DATE        : 30-SEP-2024
#TIME        : 15:37
#OWNER       :
#NPOINTS     : 2048.0
#NCOLUMNS    : 1.0
#XUNITS      : keV
#YUNITS      : counts
#DATATYPE    : XY
#XPERCHAN    : 0.02
#OFFSET      : -0.4
#SIGNALTYPE  : EDS
#CHOFFSET    : 20.0
#LIVETIME    : 60.0257
#REALTIME    : 75.3844
#BEAMKV      : 30.0
#MAGCAM      : 4000.0
#XTILTSTGE   : 0.0
#AZIMANGLE   : 0.0
#ELEVANGLE   : 25.5
#XPOSITION mm: 2.0360
#YPOSITION mm: 0.3273
#ZPOSITION mm: 12.8672
##OXINSTPT   : 2
##OXINSTSTROB: 74.68
##OXINSTELEMS: 30,8,16
##OXINSTLABEL: 30, 8.639, Zn K?1
##OXINSTLABEL: 30, 9.572, Zn K?1
##OXINSTLABEL: 30, 1.012, Zn L?1,2
##OXINSTLABEL: 30, 0.906, Zn L?
##OXINSTLABEL: 30, 0.884, Zn Ll
##OXINSTLABEL: 8, 0.525, O K?1
##OXINSTLABEL: 16, 2.308, S K?1
##OXINSTLABEL: 16, 2.464, S K?1
#SPECTRUM    : Spectral Data Starts Here
-0.40000, 0.0
-0.26000, 0.0
-0.12000, 0.0
0.02000, 2233.0
0.16000, 366.0
0.30000, 715.0
0.44000, 2331.0
0.58000, 5389.0
0.72000, 628.0
0.86000, 1058.0
1.00000, 1641.0
1.14000, 2203.0
1.28000, 2888.0
1.42000, 3861.0
1.56000, 5784.0
1.70000, 361482.0
1.84000, 71357.0
1.98000, 690.0
2.12000, 665.0
2.26000, 1280.0
2.40000, 800.0
2.54000, 846.0
2.68000, 964.0
2.82000, 995.0
2.96000, 1089.0
3.10000, 1156.0
3.24000, 1209.0
3.38000, 2769.0
3.52000, 10742.0
3.66000, 1470.0
3.80000, 1141.0
3.94000, 1149.0
4.08000, 1182.0
4.22000, 1107.0
4.36000, 1151.0
4.50000, 1154.0
4.64000, 1161.0
4.78000, 1139.0
4.92000, 1132.0
5.06000, 1133.0
5.20000, 1329.0
5.34000, 1119.0
5.48000, 1056.0
5.62000, 1052.0
5.76000, 1066.0
5.90000, 1001.0
6.04000, 990.0
6.18000, 959.0
6.32000, 916.0
6.46000, 905.0
6.60000, 874.0
6.74000, 860.0
6.88000, 859.0
7.02000, 826.0
7.16000, 854.0
7.30000, 809.0
7.44000, 795.0
7.58000, 754.0
7.72000, 747.0
7.86000, 762.0
8.00000, 698.0
8.14000, 687.0
8.28000, 709.0
8.42000, 678.0
8.56000, 621.0
8.70000, 635.0
8.84000, 597.0
8.98000, 602.0
9.12000, 608.0
9.26000, 553.0
9.40000, 562.0
9.54000, 536.0
9.68000, 543.0
9.82000, 527.0
9.96000, 516.0
10.10000, 531.0
10.24000, 479.0
10.38000, 486.0
10.52000, 458.0
10.66000, 457.0
10.80000, 443.0
10.94000, 444.0
11.08000, 407.0
11.22000, 424.0
11.36000, 391.0
11.50000, 401.0
11.64000, 385.0
11.78000, 324.0
11.92000, 340.0
12.06000, 321.0
12.20000, 311.0
12.34000, 341.0
12.48000, 298.0
12.62000, 285.0
12.76000, 281.0
12.90000, 275.0
13.04000, 278.0
13.18000, 266.0
13.32000, 271.0
13.46000, 262.0
13.60000, 215.0
13.74000, 244.0
13.88000, 229.0
14.02000, 242.0
14.16000, 213.0
14.30000, 208.0
14.44000, 200.0
14.58000, 180.0
14.72000, 192.0
14.86000, 186.0
15.00000, 165.0
15.14000, 166.0
15.28000, 174.0
15.42000, 168.0
15.56000, 146.0
15.70000, 148.0
15.84000, 139.0
15.98000, 124.0
16.12000, 132.0
16.26000, 112.0
16.40000, 112.0
16.54000, 124.0
16.68000, 113.0
16.82000, 107.0
16.96000, 108.0
17.10000, 111.0
17.24000, 108.0
17.38000, 96.0
17.52000, 93.0
17.66000, 79.0
17.80000, 93.0
17.94000, 78.0
18.08000, 73.0
18.22000, 78.0
18.36000, 74.0
18.50000, 81.0
18.64000, 56.0
18.78000, 74.0
18.92000, 60.0
19.06000, 61.0
19.20000, 49.0
19.34000, 50.0
19.48000, 52.0
19.62000, 52.0
19.76000, 56.0
19.90000, 51.0
20.04000, 47.0
20.18000, 39.0
20.32000, 44.0
20.46000, 43.0
20.60000, 48.0
20.74000, 34.0
20.88000, 30.0
21.02000, 39.0
21.16000, 33.0
21.30000, 35.0
21.44000, 26.0
21.58000, 28.0
21.72000, 32.0
21.86000, 29.0
22.00000, 26.0
22.14000, 28.0
22.28000, 28.0
22.42000, 20.0
22.56000, 23.0
22.70000, 17.0
22.84000, 24.0
22.98000, 22.0
23.12000, 20.0
23.26000, 24.0
23.40000, 22.0
23.54000, 12.0
23.68000, 23.0
23.82000, 18.0
23.96000, 11.0
24.10000, 15.0
24.24000, 11.0
24.38000, 13.0
24.52000, 10.0
24.66000, 10.0
24.80000, 9.0
24.94000, 17.0
25.08000, 12.0
25.22000, 13.0
25.36000, 12.0
25.50000, 7.0
25.64000, 8.0
25.78000, 7.0
25.92000, 6.0
26.06000, 9.0
26.20000, 4.0
26.34000, 3.0
26.48000, 3.0
26.62000, 4.0
26.76000, 5.0
26.90000, 8.0
27.04000, 5.0
27.18000, 2.0
27.32000, 6.0
27.46000, 4.0
27.60000, 4.0
27.74000, 3.0
27.88000, 2.0
28.02000, 4.0
28.16000, 2.0
28.30000, 2.0
28.44000, 2.0
28.58000, 2.0
28.72000, 1.0
28.86000, 3.0
29.00000, 3.0
29.14000, 0.0
29.28000, 1.0
29.42000, 0.0
29.56000, 1.0
29.70000, 0.0
29.84000, 1.0
29.98000, 0.0
30.12000, 1.0
30.26000, 1.0
30.40000, 0.0
30.54000, 0.0
30.68000, 1.0
30.82000, 0.0
30.96000, 0.0
31.10000, 0.0
31.24000, 0.0
31.38000, 0.0
31.52000, 0.0
31.66000, 1.0
31.80000, 0.0
31.94000, 0.0
32.08000, 0.0
32.22000, 0.0
32.36000, 0.0
32.50000, 0.0
32.64000, 0.0
32.78000, 0.0
32.92000, 0.0
33.06000, 0.0
33.20000, 0.0
33.34000, 0.0
33.48000, 0.0
33.62000, 0.0
33.76000, 0.0
33.90000, 0.0
34.04000, 0.0
34.18000, 2.0
34.32000, 0.0
34.46000, 0.0
34.60000, 0.0
34.74000, 0.0
34.88000, 0.0
35.02000, 0.0
35.16000, 0.0
35.30000, 0.0
35.44000, 0.0
35.58000, 0.0
35.72000, 0.0
35.86000, 1.0
36.00000, 0.0
36.14000, 0.0
36.28000, 0.0
36.42000, 0.0
36.56000, 0.0
36.70000, 0.0
36.84000, 0.0
36.98000, 0.0
37.12000, 0.0
37.26000, 0.0
37.40000, 0.0
37.54000, 0.0
37.68000, 0.0
37.82000, 0.0
37.96000, 0.0
38.10000, 1.0
38.24000, 0.0
38.38000, 0.0
38.52000, 1.0
38.66000, 0.0
38.80000, 0.0
38.94000, 0.0
39.08000, 0.0
39.22000, 0.0
39.36000, 0.0
39.50000, 0.0
39.64000, 0.0
39.78000, 0.0
39.92000, 0.0
40.06000, 0.0
40.20000, 0.0
40.34000, 0.0
40.48000, 0.0
40.54000, 0.0
#ENDOFDATA   :