Folder: Sommarjobb-2024/Spectrums 250416

File: A10_10keV_250616_1.txt
#FORMAT      : EMSA/MAS Spectral Data File
#VERSION     : 1.0
#TITLE       : A10_10keV_250616_1
#DATE        : 16-APR-2025
#TIME        : 09:53
#OWNER       :
#NPOINTS     : 2048.0
#NCOLUMNS    : 1.0
#XUNITS      : keV
#YUNITS      : counts
#DATATYPE    : XY
#XPERCHAN    : 0.005
#OFFSET      : -0.1
#SIGNALTYPE  : EDS
#CHOFFSET    : 20.0
#LIVETIME    : 60.024
#REALTIME    : 60.4817
#BEAMKV      : 10.0
#MAGCAM      : 600.0
#XTILTSTGE   : 0.0
#AZIMANGLE   : 0.0
#ELEVANGLE   : 29.0
#XPOSITION mm: 1.6428
#YPOSITION mm: -0.1045
#ZPOSITION mm: 13.4020
##OXINSTPT   : 2
##OXINSTSTROB: 67.56
##OXINSTNDET : 1
##OXINSTELEMS: 20,22
##OXINSTLABEL: 20, 3.692, Ca
##OXINSTLABEL: 20, 4.013, Ca
##OXINSTLABEL: 20, 0.341, Ca
##OXINSTLABEL: 20, 0.303, Ca
##OXINSTLABEL: 22, 4.511, Ti
##OXINSTLABEL: 22, 4.932, Ti
##OXINSTLABEL: 22, 0.452, Ti
##OXINSTLABEL: 22, 0.395, Ti
#SPECTRUM    : Spectral Data Starts Here
-0.10000, 0.0
-0.06500, 3.0
-0.03000, 73.0
0.00500, 486.0
0.04000, 1136.0
0.07500, 819.0
0.11000, 215.0
0.14500, 183.0
0.18000, 122.0
0.21500, 63.0
0.25000, 48.0
0.28500, 34.0
0.32000, 22.0
0.35500, 19.0
0.39000, 15.0
0.42500, 15.0
0.46000, 24.0
0.49500, 29.0
0.53000, 59.0
0.56500, 69.0
0.60000, 43.0
0.63500, 37.0
0.67000, 43.0
0.70500, 42.0
0.74000, 47.0
0.77500, 48.0
0.81000, 55.0
0.84500, 46.0
0.88000, 49.0
0.91500, 53.0
0.95000, 52.0
0.98500, 58.0
1.02000, 53.0
1.05500, 59.0
1.09000, 59.0
1.12500, 64.0
1.16000, 52.0
1.19500, 63.0
1.23000, 54.0
1.26500, 64.0
1.30000, 65.0
1.33500, 51.0
1.37000, 56.0
1.40500, 73.0
1.44000, 56.0
1.47500, 66.0
1.51000, 44.0
1.54500, 54.0
1.58000, 49.0
1.61500, 59.0
1.65000, 61.0
1.68500, 61.0
1.72000, 51.0
1.75500, 79.0
1.79000, 67.0
1.82500, 48.0
1.86000, 50.0
1.89500, 47.0
1.93000, 47.0
1.96500, 75.0
2.00000, 73.0
2.03500, 75.0
2.07000, 64.0
2.10500, 54.0
2.14000, 55.0
2.17500, 83.0
2.21000, 206.0
2.24500, 767.0
2.28000, 1629.0
2.31500, 1889.0
2.35000, 1323.0
2.38500, 702.0
2.42000, 408.0
2.45500, 274.0
2.49000, 183.0
2.52500, 125.0
2.56000, 57.0
2.59500, 43.0
2.63000, 32.0
2.66500, 21.0
2.70000, 25.0
2.73500, 25.0
2.77000, 26.0
2.80500, 34.0
2.84000, 18.0
2.87500, 22.0
2.91000, 30.0
2.94500, 24.0
2.98000, 20.0
3.01500, 22.0
3.05000, 29.0
3.08500, 23.0
3.12000, 23.0
3.15500, 19.0
3.19000, 25.0
3.22500, 21.0
3.26000, 22.0
3.29500, 19.0
3.33000, 27.0
3.36500, 23.0
3.40000, 22.0
3.43500, 20.0
3.47000, 14.0
3.50500, 22.0
3.54000, 23.0
3.57500, 14.0
3.61000, 14.0
3.64500, 22.0
3.68000, 19.0
3.71500, 14.0
3.75000, 25.0
3.78500, 26.0
3.82000, 14.0
3.85500, 12.0
3.89000, 11.0
3.92500, 15.0
3.96000, 14.0
3.99500, 15.0
4.03000, 16.0
4.06500, 15.0
4.10000, 14.0
4.13500, 11.0
4.17000, 13.0
4.20500, 8.0
4.24000, 12.0
4.27500, 14.0
4.31000, 13.0
4.34500, 13.0
4.38000, 13.0
4.41500, 13.0
4.45000, 15.0
4.48500, 9.0
4.52000, 10.0
4.55500, 8.0
4.59000, 13.0
4.62500, 13.0
4.66000, 16.0
4.69500, 16.0
4.73000, 12.0
4.76500, 12.0
4.80000, 17.0
4.83500, 14.0
4.87000, 15.0
4.90500, 13.0
4.94000, 15.0
4.97500, 11.0
5.01000, 13.0
5.04500, 9.0
5.08000, 9.0
5.11500, 10.0
5.15000, 11.0
5.18500, 10.0
5.22000, 14.0
5.25500, 13.0
5.29000, 11.0
5.32500, 11.0
5.36000, 10.0
5.39500, 11.0
5.43000, 10.0
5.46500, 3.0
5.50000, 10.0
5.53500, 10.0
5.57000, 7.0
5.60500, 10.0
5.64000, 14.0
5.67500, 7.0
5.71000, 5.0
5.74500, 11.0
5.78000, 9.0
5.81500, 9.0
5.85000, 7.0
5.88500, 5.0
5.92000, 11.0
5.95500, 12.0
5.99000, 5.0
6.02500, 12.0
6.06000, 9.0
6.09500, 10.0
6.13000, 6.0
6.16500, 11.0
6.20000, 8.0
6.23500, 6.0
6.27000, 13.0
6.30500, 7.0
6.34000, 4.0
6.37500, 5.0
6.41000, 5.0
6.44500, 8.0
6.48000, 4.0
6.51500, 5.0
6.55000, 8.0
6.58500, 5.0
6.62000, 12.0
6.65500, 10.0
6.69000, 8.0
6.72500, 3.0
6.76000, 8.0
6.79500, 6.0
6.83000, 3.0
6.86500, 9.0
6.90000, 6.0
6.93500, 11.0
6.97000, 7.0
7.00500, 9.0
7.04000, 9.0
7.07500, 8.0
7.11000, 5.0
7.14500, 3.0
7.18000, 4.0
7.21500, 1.0
7.25000, 7.0
7.28500, 11.0
7.32000, 7.0
7.35500, 2.0
7.39000, 8.0
7.42500, 8.0
7.46000, 6.0
7.49500, 3.0
7.53000, 6.0
7.56500, 4.0
7.60000, 7.0
7.63500, 3.0
7.67000, 5.0
7.70500, 2.0
7.74000, 2.0
7.77500, 2.0
7.81000, 5.0
7.84500, 2.0
7.88000, 4.0
7.91500, 3.0
7.95000, 6.0
7.98500, 4.0
8.02000, 4.0
8.05500, 2.0
8.09000, 2.0
8.12500, 5.0
8.16000, 4.0
8.19500, 4.0
8.23000, 2.0
8.26500, 3.0
8.30000, 2.0
8.33500, 2.0
8.37000, 1.0
8.40500, 5.0
8.44000, 5.0
8.47500, 1.0
8.51000, 1.0
8.54500, 3.0
8.58000, 2.0
8.61500, 3.0
8.65000, 3.0
8.68500, 0.0
8.72000, 4.0
8.75500, 3.0
8.79000, 2.0
8.82500, 2.0
8.86000, 3.0
8.89500, 1.0
8.93000, 2.0
8.96500, 2.0
9.00000, 4.0
9.03500, 0.0
9.07000, 3.0
9.10500, 2.0
9.14000, 3.0
9.17500, 1.0
9.21000, 2.0
9.24500, 2.0
9.28000, 1.0
9.31500, 4.0
9.35000, 3.0
9.38500, 3.0
9.42000, 1.0
9.45500, 3.0
9.49000, 0.0
9.52500, 2.0
9.56000, 1.0
9.59500, 0.0
9.63000, 2.0
9.66500, 0.0
9.70000, 0.0
9.73500, 1.0
9.77000, 0.0
9.80500, 1.0
9.84000, 0.0
9.87500, 1.0
9.91000, 0.0
9.94500, 0.0
9.98000, 0.0
10.01500, 0.0
10.05000, 0.0
10.08500, 0.0
10.12000, 0.0
10.13500, 0.0
#ENDOFDATA   :