Folder: Sommarjobb-2024/Spectras 20250424 (part 4)

File: 20250425_10K_H12_3.txt
#FORMAT      : EMSA/MAS Spectral Data File
#VERSION     : 1.0
#TITLE       : 20250425_10K_H12_3
#DATE        : 24-APR-2025
#TIME        : 09:36
#OWNER       :
#NPOINTS     : 2048.0
#NCOLUMNS    : 1.0
#XUNITS      : keV
#YUNITS      : counts
#DATATYPE    : XY
#XPERCHAN    : 0.005
#OFFSET      : -0.1
#SIGNALTYPE  : EDS
#CHOFFSET    : 20.0
#LIVETIME    : 60.0
#REALTIME    : 61.4461
#BEAMKV      : 10.0
#MAGCAM      : 4000.0
#XTILTSTGE   : 0.0
#AZIMANGLE   : 0.0
#ELEVANGLE   : 29.0
#XPOSITION mm: 0.7570
#YPOSITION mm: 0.1853
#ZPOSITION mm: 13.4437
##OXINSTPT   : 2
##OXINSTSTROB: 67.55
##OXINSTELEMS: 42,16,14,8
##OXINSTLABEL: 42, 2.293, Mo
##OXINSTLABEL: 42, 2.395, Mo
##OXINSTLABEL: 42, 2.120, Mo
##OXINSTLABEL: 42, 2.831, Mo
##OXINSTLABEL: 42, 2.016, Mo
##OXINSTLABEL: 42, 0.193, Mo
##OXINSTLABEL: 16, 2.308, S
##OXINSTLABEL: 16, 2.464, S
##OXINSTLABEL: 14, 1.740, Si
##OXINSTLABEL: 8, 0.525, O
#SPECTRUM    : Spectral Data Starts Here
-0.10000, 0.0
-0.06500, 3.0
-0.03000, 73.0
0.00500, 476.0
0.04000, 1027.0
0.07500, 831.0
0.11000, 303.0
0.14500, 386.0
0.18000, 380.0
0.21500, 276.0
0.25000, 382.0
0.28500, 425.0
0.32000, 211.0
0.35500, 85.0
0.39000, 100.0
0.42500, 114.0
0.46000, 306.0
0.49500, 1007.0
0.53000, 1307.0
0.56500, 672.0
0.60000, 205.0
0.63500, 118.0
0.67000, 129.0
0.70500, 129.0
0.74000, 138.0
0.77500, 169.0
0.81000, 173.0
0.84500, 173.0
0.88000, 195.0
0.91500, 204.0
0.95000, 199.0
0.98500, 189.0
1.02000, 217.0
1.05500, 196.0
1.09000, 203.0
1.12500, 195.0
1.16000, 195.0
1.19500, 198.0
1.23000, 212.0
1.26500, 225.0
1.30000, 208.0
1.33500, 198.0
1.37000, 207.0
1.40500, 204.0
1.44000, 208.0
1.47500, 201.0
1.51000, 209.0
1.54500, 214.0
1.58000, 187.0
1.61500, 269.0
1.65000, 740.0
1.68500, 3030.0
1.72000, 7056.0
1.75500, 7824.0
1.79000, 4325.0
1.82500, 1429.0
1.86000, 505.0
1.89500, 247.0
1.93000, 133.0
1.96500, 128.0
2.00000, 152.0
2.03500, 161.0
2.07000, 132.0
2.10500, 113.0
2.14000, 112.0
2.17500, 135.0
2.21000, 337.0
2.24500, 978.0
2.28000, 2091.0
2.31500, 2406.0
2.35000, 1704.0
2.38500, 954.0
2.42000, 570.0
2.45500, 422.0
2.49000, 341.0
2.52500, 191.0
2.56000, 153.0
2.59500, 103.0
2.63000, 95.0
2.66500, 98.0
2.70000, 90.0
2.73500, 68.0
2.77000, 77.0
2.80500, 74.0
2.84000, 71.0
2.87500, 88.0
2.91000, 70.0
2.94500, 65.0
2.98000, 67.0
3.01500, 69.0
3.05000, 67.0
3.08500, 72.0
3.12000, 78.0
3.15500, 61.0
3.19000, 73.0
3.22500, 70.0
3.26000, 66.0
3.29500, 48.0
3.33000, 59.0
3.36500, 70.0
3.40000, 67.0
3.43500, 61.0
3.47000, 63.0
3.50500, 61.0
3.54000, 69.0
3.57500, 49.0
3.61000, 57.0
3.64500, 57.0
3.68000, 56.0
3.71500, 53.0
3.75000, 51.0
3.78500, 42.0
3.82000, 63.0
3.85500, 45.0
3.89000, 57.0
3.92500, 57.0
3.96000, 53.0
3.99500, 48.0
4.03000, 45.0
4.06500, 55.0
4.10000, 37.0
4.13500, 52.0
4.17000, 44.0
4.20500, 61.0
4.24000, 42.0
4.27500, 53.0
4.31000, 45.0
4.34500, 46.0
4.38000, 32.0
4.41500, 34.0
4.45000, 38.0
4.48500, 38.0
4.52000, 37.0
4.55500, 30.0
4.59000, 36.0
4.62500, 34.0
4.66000, 43.0
4.69500, 39.0
4.73000, 37.0
4.76500, 30.0
4.80000, 34.0
4.83500, 27.0
4.87000, 22.0
4.90500, 33.0
4.94000, 28.0
4.97500, 35.0
5.01000, 29.0
5.04500, 35.0
5.08000, 32.0
5.11500, 34.0
5.15000, 26.0
5.18500, 37.0
5.22000, 28.0
5.25500, 31.0
5.29000, 27.0
5.32500, 20.0
5.36000, 32.0
5.39500, 30.0
5.43000, 28.0
5.46500, 31.0
5.50000, 28.0
5.53500, 27.0
5.57000, 23.0
5.60500, 32.0
5.64000, 24.0
5.67500, 30.0
5.71000, 26.0
5.74500, 29.0
5.78000, 19.0
5.81500, 22.0
5.85000, 24.0
5.88500, 17.0
5.92000, 19.0
5.95500, 24.0
5.99000, 28.0
6.02500, 27.0
6.06000, 23.0
6.09500, 13.0
6.13000, 23.0
6.16500, 29.0
6.20000, 19.0
6.23500, 19.0
6.27000, 18.0
6.30500, 19.0
6.34000, 14.0
6.37500, 24.0
6.41000, 21.0
6.44500, 28.0
6.48000, 19.0
6.51500, 18.0
6.55000, 18.0
6.58500, 19.0
6.62000, 24.0
6.65500, 18.0
6.69000, 22.0
6.72500, 21.0
6.76000, 12.0
6.79500, 15.0
6.83000, 16.0
6.86500, 16.0
6.90000, 23.0
6.93500, 15.0
6.97000, 13.0
7.00500, 6.0
7.04000, 16.0
7.07500, 19.0
7.11000, 15.0
7.14500, 14.0
7.18000, 16.0
7.21500, 12.0
7.25000, 19.0
7.28500, 9.0
7.32000, 15.0
7.35500, 15.0
7.39000, 9.0
7.42500, 15.0
7.46000, 16.0
7.49500, 13.0
7.53000, 10.0
7.56500, 7.0
7.60000, 10.0
7.63500, 7.0
7.67000, 9.0
7.70500, 10.0
7.74000, 18.0
7.77500, 12.0
7.81000, 16.0
7.84500, 11.0
7.88000, 6.0
7.91500, 16.0
7.95000, 6.0
7.98500, 12.0
8.02000, 8.0
8.05500, 13.0
8.09000, 11.0
8.12500, 12.0
8.16000, 10.0
8.19500, 5.0
8.23000, 14.0
8.26500, 9.0
8.30000, 6.0
8.33500, 5.0
8.37000, 6.0
8.40500, 9.0
8.44000, 6.0
8.47500, 6.0
8.51000, 12.0
8.54500, 5.0
8.58000, 10.0
8.61500, 8.0
8.65000, 10.0
8.68500, 10.0
8.72000, 7.0
8.75500, 5.0
8.79000, 10.0
8.82500, 7.0
8.86000, 5.0
8.89500, 4.0
8.93000, 6.0
8.96500, 2.0
9.00000, 4.0
9.03500, 7.0
9.07000, 10.0
9.10500, 8.0
9.14000, 5.0
9.17500, 5.0
9.21000, 1.0
9.24500, 2.0
9.28000, 1.0
9.31500, 3.0
9.35000, 3.0
9.38500, 7.0
9.42000, 9.0
9.45500, 3.0
9.49000, 5.0
9.52500, 4.0
9.56000, 2.0
9.59500, 5.0
9.63000, 2.0
9.66500, 4.0
9.70000, 5.0
9.73500, 6.0
9.77000, 4.0
9.80500, 4.0
9.84000, 3.0
9.87500, 2.0
9.91000, 4.0
9.94500, 2.0
9.98000, 3.0
10.01500, 0.0
10.05000, 0.0
10.08500, 0.0
10.12000, 0.0
10.13500, 0.0
#ENDOFDATA   :

File: 20250425_10K_J1_2.txt
#FORMAT      : EMSA/MAS Spectral Data File
#VERSION     : 1.0
#TITLE       : 20250425_10K_J1_2
#DATE        : 24-APR-2025
#TIME        : 10:37
#OWNER       :
#NPOINTS     : 2048.0
#NCOLUMNS    : 1.0
#XUNITS      : keV
#YUNITS      : counts
#DATATYPE    : XY
#XPERCHAN    : 0.005
#OFFSET      : -0.1
#SIGNALTYPE  : EDS
#CHOFFSET    : 20.0
#LIVETIME    : 60.0
#REALTIME    : 61.5827
#BEAMKV      : 10.0
#MAGCAM      : 800.0
#XTILTSTGE   : 0.0
#AZIMANGLE   : 0.0
#ELEVANGLE   : 29.0
#XPOSITION mm: 2.1725
#YPOSITION mm: 1.8240
#ZPOSITION mm: 13.5200
##OXINSTPT   : 2
##OXINSTSTROB: 67.46
#SPECTRUM    : Spectral Data Starts Here
-0.10000, 0.0
-0.06500, 4.0
-0.03000, 64.0
0.00500, 493.0
0.04000, 1085.0
0.07500, 789.0
0.11000, 363.0
0.14500, 594.0
0.18000, 537.0
0.21500, 275.0
0.25000, 178.0
0.28500, 139.0
0.32000, 78.0
0.35500, 57.0
0.39000, 75.0
0.42500, 102.0
0.46000, 198.0
0.49500, 597.0
0.53000, 797.0
0.56500, 469.0
0.60000, 224.0
0.63500, 156.0
0.67000, 165.0
0.70500, 157.0
0.74000, 207.0
0.77500, 181.0
0.81000, 204.0
0.84500, 197.0
0.88000, 226.0
0.91500, 235.0
0.95000, 212.0
0.98500, 218.0
1.02000, 239.0
1.05500, 233.0
1.09000, 219.0
1.12500, 206.0
1.16000, 218.0
1.19500, 241.0
1.23000, 240.0
1.26500, 224.0
1.30000, 236.0
1.33500, 221.0
1.37000, 228.0
1.40500, 213.0
1.44000, 249.0
1.47500, 221.0
1.51000, 233.0
1.54500, 233.0
1.58000, 212.0
1.61500, 242.0
1.65000, 629.0
1.68500, 2436.0
1.72000, 5608.0
1.75500, 6424.0
1.79000, 3461.0
1.82500, 1175.0
1.86000, 459.0
1.89500, 227.0
1.93000, 185.0
1.96500, 163.0
2.00000, 202.0
2.03500, 220.0
2.07000, 206.0
2.10500, 183.0
2.14000, 186.0
2.17500, 195.0
2.21000, 585.0
2.24500, 1863.0
2.28000, 3917.0
2.31500, 4644.0
2.35000, 3172.0
2.38500, 1689.0
2.42000, 1020.0
2.45500, 725.0
2.49000, 535.0
2.52500, 327.0
2.56000, 191.0
2.59500, 127.0
2.63000, 117.0
2.66500, 114.0
2.70000, 103.0
2.73500, 95.0
2.77000, 78.0
2.80500, 96.0
2.84000, 105.0
2.87500, 107.0
2.91000, 86.0
2.94500, 93.0
2.98000, 68.0
3.01500, 79.0
3.05000, 71.0
3.08500, 69.0
3.12000, 92.0
3.15500, 56.0
3.19000, 74.0
3.22500, 70.0
3.26000, 68.0
3.29500, 82.0
3.33000, 84.0
3.36500, 65.0
3.40000, 66.0
3.43500, 73.0
3.47000, 83.0
3.50500, 71.0
3.54000, 71.0
3.57500, 72.0
3.61000, 70.0
3.64500, 66.0
3.68000, 56.0
3.71500, 50.0
3.75000, 70.0
3.78500, 63.0
3.82000, 56.0
3.85500, 57.0
3.89000, 69.0
3.92500, 61.0
3.96000, 59.0
3.99500, 67.0
4.03000, 67.0
4.06500, 61.0
4.10000, 53.0
4.13500, 62.0
4.17000, 54.0
4.20500, 67.0
4.24000, 55.0
4.27500, 55.0
4.31000, 51.0
4.34500, 54.0
4.38000, 65.0
4.41500, 46.0
4.45000, 49.0
4.48500, 61.0
4.52000, 47.0
4.55500, 48.0
4.59000, 45.0
4.62500, 45.0
4.66000, 42.0
4.69500, 60.0
4.73000, 39.0
4.76500, 41.0
4.80000, 49.0
4.83500, 41.0
4.87000, 46.0
4.90500, 40.0
4.94000, 35.0
4.97500, 42.0
5.01000, 47.0
5.04500, 33.0
5.08000, 41.0
5.11500, 31.0
5.15000, 43.0
5.18500, 34.0
5.22000, 44.0
5.25500, 43.0
5.29000, 45.0
5.32500, 35.0
5.36000, 36.0
5.39500, 38.0
5.43000, 35.0
5.46500, 36.0
5.50000, 45.0
5.53500, 26.0
5.57000, 25.0
5.60500, 37.0
5.64000, 31.0
5.67500, 37.0
5.71000, 28.0
5.74500, 36.0
5.78000, 26.0
5.81500, 34.0
5.85000, 36.0
5.88500, 25.0
5.92000, 33.0
5.95500, 32.0
5.99000, 31.0
6.02500, 29.0
6.06000, 24.0
6.09500, 32.0
6.13000, 35.0
6.16500, 28.0
6.20000, 29.0
6.23500, 23.0
6.27000, 27.0
6.30500, 22.0
6.34000, 23.0
6.37500, 25.0
6.41000, 19.0
6.44500, 32.0
6.48000, 30.0
6.51500, 31.0
6.55000, 33.0
6.58500, 20.0
6.62000, 25.0
6.65500, 26.0
6.69000, 12.0
6.72500, 22.0
6.76000, 24.0
6.79500, 27.0
6.83000, 17.0
6.86500, 14.0
6.90000, 21.0
6.93500, 23.0
6.97000, 22.0
7.00500, 34.0
7.04000, 19.0
7.07500, 13.0
7.11000, 23.0
7.14500, 17.0
7.18000, 14.0
7.21500, 17.0
7.25000, 16.0
7.28500, 14.0
7.32000, 15.0
7.35500, 28.0
7.39000, 11.0
7.42500, 20.0
7.46000, 17.0
7.49500, 21.0
7.53000, 25.0
7.56500, 9.0
7.60000, 17.0
7.63500, 14.0
7.67000, 11.0
7.70500, 21.0
7.74000, 13.0
7.77500, 18.0
7.81000, 13.0
7.84500, 9.0
7.88000, 10.0
7.91500, 17.0
7.95000, 16.0
7.98500, 12.0
8.02000, 16.0
8.05500, 18.0
8.09000, 13.0
8.12500, 15.0
8.16000, 13.0
8.19500, 16.0
8.23000, 8.0
8.26500, 10.0
8.30000, 11.0
8.33500, 7.0
8.37000, 10.0
8.40500, 11.0
8.44000, 10.0
8.47500, 17.0
8.51000, 9.0
8.54500, 9.0
8.58000, 11.0
8.61500, 11.0
8.65000, 6.0
8.68500, 8.0
8.72000, 10.0
8.75500, 8.0
8.79000, 9.0
8.82500, 12.0
8.86000, 6.0
8.89500, 14.0
8.93000, 7.0
8.96500, 11.0
9.00000, 9.0
9.03500, 9.0
9.07000, 3.0
9.10500, 6.0
9.14000, 9.0
9.17500, 10.0
9.21000, 11.0
9.24500, 11.0
9.28000, 4.0
9.31500, 4.0
9.35000, 5.0
9.38500, 5.0
9.42000, 7.0
9.45500, 4.0
9.49000, 6.0
9.52500, 3.0
9.56000, 9.0
9.59500, 3.0
9.63000, 7.0
9.66500, 1.0
9.70000, 1.0
9.73500, 2.0
9.77000, 4.0
9.80500, 2.0
9.84000, 2.0
9.87500, 2.0
9.91000, 1.0
9.94500, 1.0
9.98000, 1.0
10.01500, 0.0
10.05000, 0.0
10.08500, 0.0
10.12000, 0.0
10.13500, 0.0
#ENDOFDATA   :

File: 20250425_10K_J1_3.txt
#FORMAT      : EMSA/MAS Spectral Data File
#VERSION     : 1.0
#TITLE       : 20250425_10K_J1_3
#DATE        : 24-APR-2025
#TIME        : 10:38
#OWNER       :
#NPOINTS     : 2048.0
#NCOLUMNS    : 1.0
#XUNITS      : keV
#YUNITS      : counts
#DATATYPE    : XY
#XPERCHAN    : 0.005
#OFFSET      : -0.1
#SIGNALTYPE  : EDS
#CHOFFSET    : 20.0
#LIVETIME    : 60.0
#REALTIME    : 61.5691
#BEAMKV      : 10.0
#MAGCAM      : 800.0
#XTILTSTGE   : 0.0
#AZIMANGLE   : 0.0
#ELEVANGLE   : 29.0
#XPOSITION mm: 2.1725
#YPOSITION mm: 1.8240
#ZPOSITION mm: 13.5200
##OXINSTPT   : 2
##OXINSTSTROB: 67.53
#SPECTRUM    : Spectral Data Starts Here
-0.10000, 0.0
-0.06500, 1.0
-0.03000, 60.0
0.00500, 481.0
0.04000, 1047.0
0.07500, 820.0
0.11000, 365.0
0.14500, 576.0
0.18000, 524.0
0.21500, 303.0
0.25000, 166.0
0.28500, 150.0
0.32000, 93.0
0.35500, 59.0
0.39000, 71.0
0.42500, 86.0
0.46000, 223.0
0.49500, 623.0
0.53000, 765.0
0.56500, 475.0
0.60000, 213.0
0.63500, 153.0
0.67000, 157.0
0.70500, 162.0
0.74000, 196.0
0.77500, 194.0
0.81000, 189.0
0.84500, 216.0
0.88000, 221.0
0.91500, 228.0
0.95000, 219.0
0.98500, 244.0
1.02000, 198.0
1.05500, 208.0
1.09000, 240.0
1.12500, 228.0
1.16000, 210.0
1.19500, 226.0
1.23000, 222.0
1.26500, 227.0
1.30000, 228.0
1.33500, 226.0
1.37000, 224.0
1.40500, 224.0
1.44000, 228.0
1.47500, 250.0
1.51000, 245.0
1.54500, 231.0
1.58000, 208.0
1.61500, 265.0
1.65000, 664.0
1.68500, 2476.0
1.72000, 5704.0
1.75500, 6174.0
1.79000, 3471.0
1.82500, 1226.0
1.86000, 469.0
1.89500, 239.0
1.93000, 173.0
1.96500, 178.0
2.00000, 225.0
2.03500, 207.0
2.07000, 201.0
2.10500, 173.0
2.14000, 167.0
2.17500, 206.0
2.21000, 555.0
2.24500, 1854.0
2.28000, 3815.0
2.31500, 4582.0
2.35000, 3143.0
2.38500, 1720.0
2.42000, 1038.0
2.45500, 759.0
2.49000, 499.0
2.52500, 316.0
2.56000, 194.0
2.59500, 147.0
2.63000, 109.0
2.66500, 121.0
2.70000, 91.0
2.73500, 85.0
2.77000, 82.0
2.80500, 94.0
2.84000, 105.0
2.87500, 87.0
2.91000, 87.0
2.94500, 66.0
2.98000, 71.0
3.01500, 77.0
3.05000, 82.0
3.08500, 80.0
3.12000, 79.0
3.15500, 63.0
3.19000, 90.0
3.22500, 67.0
3.26000, 71.0
3.29500, 93.0
3.33000, 62.0
3.36500, 67.0
3.40000, 81.0
3.43500, 69.0
3.47000, 64.0
3.50500, 76.0
3.54000, 54.0
3.57500, 56.0
3.61000, 63.0
3.64500, 67.0
3.68000, 62.0
3.71500, 66.0
3.75000, 53.0
3.78500, 62.0
3.82000, 69.0
3.85500, 58.0
3.89000, 57.0
3.92500, 66.0
3.96000, 52.0
3.99500, 66.0
4.03000, 70.0
4.06500, 65.0
4.10000, 61.0
4.13500, 47.0
4.17000, 56.0
4.20500, 66.0
4.24000, 52.0
4.27500, 51.0
4.31000, 49.0
4.34500, 51.0
4.38000, 49.0
4.41500, 56.0
4.45000, 56.0
4.48500, 51.0
4.52000, 43.0
4.55500, 45.0
4.59000, 40.0
4.62500, 52.0
4.66000, 55.0
4.69500, 34.0
4.73000, 49.0
4.76500, 41.0
4.80000, 36.0
4.83500, 44.0
4.87000, 44.0
4.90500, 39.0
4.94000, 35.0
4.97500, 42.0
5.01000, 34.0
5.04500, 50.0
5.08000, 46.0
5.11500, 40.0
5.15000, 46.0
5.18500, 42.0
5.22000, 37.0
5.25500, 37.0
5.29000, 36.0
5.32500, 37.0
5.36000, 43.0
5.39500, 31.0
5.43000, 31.0
5.46500, 31.0
5.50000, 21.0
5.53500, 30.0
5.57000, 40.0
5.60500, 27.0
5.64000, 36.0
5.67500, 32.0
5.71000, 38.0
5.74500, 43.0
5.78000, 29.0
5.81500, 35.0
5.85000, 31.0
5.88500, 32.0
5.92000, 43.0
5.95500, 31.0
5.99000, 30.0
6.02500, 26.0
6.06000, 31.0
6.09500, 21.0
6.13000, 28.0
6.16500, 35.0
6.20000, 27.0
6.23500, 32.0
6.27000, 21.0
6.30500, 22.0
6.34000, 27.0
6.37500, 24.0
6.41000, 25.0
6.44500, 31.0
6.48000, 20.0
6.51500, 20.0
6.55000, 25.0
6.58500, 15.0
6.62000, 26.0
6.65500, 27.0
6.69000, 23.0
6.72500, 23.0
6.76000, 18.0
6.79500, 25.0
6.83000, 16.0
6.86500, 23.0
6.90000, 25.0
6.93500, 17.0
6.97000, 10.0
7.00500, 18.0
7.04000, 21.0
7.07500, 24.0
7.11000, 21.0
7.14500, 18.0
7.18000, 17.0
7.21500, 18.0
7.25000, 24.0
7.28500, 17.0
7.32000, 25.0
7.35500, 21.0
7.39000, 19.0
7.42500, 9.0
7.46000, 17.0
7.49500, 17.0
7.53000, 13.0
7.56500, 18.0
7.60000, 9.0
7.63500, 12.0
7.67000, 18.0
7.70500, 10.0
7.74000, 21.0
7.77500, 12.0
7.81000, 14.0
7.84500, 13.0
7.88000, 18.0
7.91500, 11.0
7.95000, 13.0
7.98500, 13.0
8.02000, 15.0
8.05500, 18.0
8.09000, 18.0
8.12500, 9.0
8.16000, 15.0
8.19500, 13.0
8.23000, 9.0
8.26500, 11.0
8.30000, 12.0
8.33500, 11.0
8.37000, 19.0
8.40500, 12.0
8.44000, 13.0
8.47500, 14.0
8.51000, 6.0
8.54500, 8.0
8.58000, 7.0
8.61500, 17.0
8.65000, 11.0
8.68500, 12.0
8.72000, 11.0
8.75500, 10.0
8.79000, 9.0
8.82500, 13.0
8.86000, 10.0
8.89500, 12.0
8.93000, 8.0
8.96500, 5.0
9.00000, 2.0
9.03500, 7.0
9.07000, 12.0
9.10500, 5.0
9.14000, 8.0
9.17500, 8.0
9.21000, 4.0
9.24500, 4.0
9.28000, 4.0
9.31500, 3.0
9.35000, 6.0
9.38500, 6.0
9.42000, 7.0
9.45500, 7.0
9.49000, 3.0
9.52500, 5.0
9.56000, 4.0
9.59500, 6.0
9.63000, 9.0
9.66500, 2.0
9.70000, 3.0
9.73500, 2.0
9.77000, 5.0
9.80500, 4.0
9.84000, 2.0
9.87500, 2.0
9.91000, 1.0
9.94500, 2.0
9.98000, 0.0
10.01500, 1.0
10.05000, 1.0
10.08500, 0.0
10.12000, 0.0
10.13500, 0.0
#ENDOFDATA   :

File: 20250425_10K_N10_area1_3.txt
#FORMAT      : EMSA/MAS Spectral Data File
#VERSION     : 1.0
#TITLE       : 20250425_10K_N10_area1_3
#DATE        : 24-APR-2025
#TIME        : 10:06
#OWNER       :
#NPOINTS     : 2048.0
#NCOLUMNS    : 1.0
#XUNITS      : keV
#YUNITS      : counts
#DATATYPE    : XY
#XPERCHAN    : 0.005
#OFFSET      : -0.1
#SIGNALTYPE  : EDS
#CHOFFSET    : 20.0
#LIVETIME    : 60.0167
#REALTIME    : 61.6328
#BEAMKV      : 10.0
#MAGCAM      : 2500.0
#XTILTSTGE   : 0.0
#AZIMANGLE   : 0.0
#ELEVANGLE   : 29.0
#XPOSITION mm: -0.7828
#YPOSITION mm: 0.5540
#ZPOSITION mm: 13.5530
##OXINSTPT   : 2
##OXINSTSTROB: 67.62
#SPECTRUM    : Spectral Data Starts Here
-0.10000, 0.0
-0.06500, 4.0
-0.03000, 78.0
0.00500, 497.0
0.04000, 1098.0
0.07500, 785.0
0.11000, 285.0
0.14500, 327.0
0.18000, 351.0
0.21500, 225.0
0.25000, 140.0
0.28500, 163.0
0.32000, 85.0
0.35500, 68.0
0.39000, 83.0
0.42500, 161.0
0.46000, 485.0
0.49500, 1658.0
0.53000, 2172.0
0.56500, 1079.0
0.60000, 287.0
0.63500, 130.0
0.67000, 134.0
0.70500, 132.0
0.74000, 148.0
0.77500, 165.0
0.81000, 183.0
0.84500, 193.0
0.88000, 192.0
0.91500, 193.0
0.95000, 199.0
0.98500, 210.0
1.02000, 201.0
1.05500, 221.0
1.09000, 199.0
1.12500, 218.0
1.16000, 210.0
1.19500, 214.0
1.23000, 215.0
1.26500, 213.0
1.30000, 214.0
1.33500, 204.0
1.37000, 205.0
1.40500, 190.0
1.44000, 209.0
1.47500, 221.0
1.51000, 233.0
1.54500, 210.0
1.58000, 224.0
1.61500, 279.0
1.65000, 876.0
1.68500, 3688.0
1.72000, 8600.0
1.75500, 9725.0
1.79000, 5280.0
1.82500, 1699.0
1.86000, 611.0
1.89500, 276.0
1.93000, 163.0
1.96500, 143.0
2.00000, 148.0
2.03500, 155.0
2.07000, 139.0
2.10500, 128.0
2.14000, 106.0
2.17500, 146.0
2.21000, 321.0
2.24500, 947.0
2.28000, 2008.0
2.31500, 2341.0
2.35000, 1601.0
2.38500, 893.0
2.42000, 561.0
2.45500, 439.0
2.49000, 277.0
2.52500, 213.0
2.56000, 126.0
2.59500, 130.0
2.63000, 95.0
2.66500, 98.0
2.70000, 89.0
2.73500, 60.0
2.77000, 75.0
2.80500, 80.0
2.84000, 75.0
2.87500, 84.0
2.91000, 78.0
2.94500, 62.0
2.98000, 77.0
3.01500, 74.0
3.05000, 66.0
3.08500, 70.0
3.12000, 76.0
3.15500, 57.0
3.19000, 62.0
3.22500, 52.0
3.26000, 48.0
3.29500, 68.0
3.33000, 77.0
3.36500, 70.0
3.40000, 61.0
3.43500, 65.0
3.47000, 59.0
3.50500, 57.0
3.54000, 70.0
3.57500, 67.0
3.61000, 61.0
3.64500, 43.0
3.68000, 56.0
3.71500, 52.0
3.75000, 45.0
3.78500, 57.0
3.82000, 54.0
3.85500, 50.0
3.89000, 59.0
3.92500, 46.0
3.96000, 55.0
3.99500, 53.0
4.03000, 52.0
4.06500, 59.0
4.10000, 63.0
4.13500, 56.0
4.17000, 30.0
4.20500, 51.0
4.24000, 55.0
4.27500, 32.0
4.31000, 46.0
4.34500, 43.0
4.38000, 43.0
4.41500, 44.0
4.45000, 35.0
4.48500, 39.0
4.52000, 44.0
4.55500, 45.0
4.59000, 42.0
4.62500, 46.0
4.66000, 41.0
4.69500, 35.0
4.73000, 32.0
4.76500, 31.0
4.80000, 35.0
4.83500, 32.0
4.87000, 28.0
4.90500, 32.0
4.94000, 41.0
4.97500, 31.0
5.01000, 34.0
5.04500, 34.0
5.08000, 40.0
5.11500, 27.0
5.15000, 29.0
5.18500, 33.0
5.22000, 39.0
5.25500, 23.0
5.29000, 32.0
5.32500, 29.0
5.36000, 28.0
5.39500, 26.0
5.43000, 20.0
5.46500, 28.0
5.50000, 31.0
5.53500, 25.0
5.57000, 27.0
5.60500, 39.0
5.64000, 22.0
5.67500, 31.0
5.71000, 22.0
5.74500, 22.0
5.78000, 17.0
5.81500, 15.0
5.85000, 22.0
5.88500, 25.0
5.92000, 25.0
5.95500, 18.0
5.99000, 26.0
6.02500, 22.0
6.06000, 29.0
6.09500, 26.0
6.13000, 30.0
6.16500, 21.0
6.20000, 27.0
6.23500, 14.0
6.27000, 22.0
6.30500, 19.0
6.34000, 21.0
6.37500, 19.0
6.41000, 19.0
6.44500, 12.0
6.48000, 19.0
6.51500, 23.0
6.55000, 19.0
6.58500, 14.0
6.62000, 17.0
6.65500, 26.0
6.69000, 15.0
6.72500, 18.0
6.76000, 14.0
6.79500, 20.0
6.83000, 19.0
6.86500, 15.0
6.90000, 16.0
6.93500, 15.0
6.97000, 14.0
7.00500, 17.0
7.04000, 23.0
7.07500, 17.0
7.11000, 20.0
7.14500, 18.0
7.18000, 16.0
7.21500, 17.0
7.25000, 13.0
7.28500, 18.0
7.32000, 16.0
7.35500, 7.0
7.39000, 15.0
7.42500, 17.0
7.46000, 9.0
7.49500, 14.0
7.53000, 9.0
7.56500, 18.0
7.60000, 9.0
7.63500, 11.0
7.67000, 9.0
7.70500, 18.0
7.74000, 10.0
7.77500, 10.0
7.81000, 16.0
7.84500, 13.0
7.88000, 11.0
7.91500, 11.0
7.95000, 10.0
7.98500, 15.0
8.02000, 13.0
8.05500, 4.0
8.09000, 10.0
8.12500, 7.0
8.16000, 9.0
8.19500, 8.0
8.23000, 9.0
8.26500, 6.0
8.30000, 8.0
8.33500, 7.0
8.37000, 5.0
8.40500, 10.0
8.44000, 7.0
8.47500, 14.0
8.51000, 8.0
8.54500, 8.0
8.58000, 8.0
8.61500, 6.0
8.65000, 3.0
8.68500, 4.0
8.72000, 8.0
8.75500, 2.0
8.79000, 10.0
8.82500, 9.0
8.86000, 6.0
8.89500, 11.0
8.93000, 11.0
8.96500, 4.0
9.00000, 9.0
9.03500, 7.0
9.07000, 6.0
9.10500, 6.0
9.14000, 8.0
9.17500, 6.0
9.21000, 5.0
9.24500, 4.0
9.28000, 6.0
9.31500, 9.0
9.35000, 1.0
9.38500, 5.0
9.42000, 6.0
9.45500, 2.0
9.49000, 1.0
9.52500, 3.0
9.56000, 3.0
9.59500, 4.0
9.63000, 3.0
9.66500, 2.0
9.70000, 2.0
9.73500, 2.0
9.77000, 3.0
9.80500, 3.0
9.84000, 3.0
9.87500, 0.0
9.91000, 2.0
9.94500, 0.0
9.98000, 0.0
10.01500, 1.0
10.05000, 1.0
10.08500, 0.0
10.12000, 0.0
10.13500, 0.0
#ENDOFDATA   :

File: 20250425_10K_N10_area2_1.txt
#FORMAT      : EMSA/MAS Spectral Data File
#VERSION     : 1.0
#TITLE       : 20250425_10K_N10_area2_1
#DATE        : 24-APR-2025
#TIME        : 10:07
#OWNER       :
#NPOINTS     : 2048.0
#NCOLUMNS    : 1.0
#XUNITS      : keV
#YUNITS      : counts
#DATATYPE    : XY
#XPERCHAN    : 0.005
#OFFSET      : -0.1
#SIGNALTYPE  : EDS
#CHOFFSET    : 20.0
#LIVETIME    : 60.0035
#REALTIME    : 61.7722
#BEAMKV      : 10.0
#MAGCAM      : 1700.0
#XTILTSTGE   : 0.0
#AZIMANGLE   : 0.0
#ELEVANGLE   : 29.0
#XPOSITION mm: -0.7575
#YPOSITION mm: 0.5895
#ZPOSITION mm: 13.5530
##OXINSTPT   : 2
##OXINSTSTROB: 67.55
#SPECTRUM    : Spectral Data Starts Here
-0.10000, 0.0
-0.06500, 4.0
-0.03000, 76.0
0.00500, 483.0
0.04000, 1059.0
0.07500, 777.0
0.11000, 222.0
0.14500, 187.0
0.18000, 192.0
0.21500, 153.0
0.25000, 148.0
0.28500, 159.0
0.32000, 79.0
0.35500, 79.0
0.39000, 91.0
0.42500, 214.0
0.46000, 946.0
0.49500, 3279.0
0.53000, 4348.0
0.56500, 1990.0
0.60000, 382.0
0.63500, 119.0
0.67000, 111.0
0.70500, 124.0
0.74000, 129.0
0.77500, 165.0
0.81000, 162.0
0.84500, 185.0
0.88000, 177.0
0.91500, 178.0
0.95000, 189.0
0.98500, 192.0
1.02000, 204.0
1.05500, 196.0
1.09000, 199.0
1.12500, 188.0
1.16000, 201.0
1.19500, 195.0
1.23000, 210.0
1.26500, 187.0
1.30000, 201.0
1.33500, 227.0
1.37000, 209.0
1.40500, 194.0
1.44000, 199.0
1.47500, 220.0
1.51000, 209.0
1.54500, 240.0
1.58000, 247.0
1.61500, 280.0
1.65000, 1056.0
1.68500, 4668.0
1.72000, 10851.0
1.75500, 12124.0
1.79000, 6743.0
1.82500, 2074.0
1.86000, 735.0
1.89500, 280.0
1.93000, 148.0
1.96500, 113.0
2.00000, 113.0
2.03500, 106.0
2.07000, 91.0
2.10500, 95.0
2.14000, 89.0
2.17500, 98.0
2.21000, 171.0
2.24500, 425.0
2.28000, 806.0
2.31500, 909.0
2.35000, 665.0
2.38500, 392.0
2.42000, 256.0
2.45500, 217.0
2.49000, 149.0
2.52500, 134.0
2.56000, 101.0
2.59500, 87.0
2.63000, 80.0
2.66500, 74.0
2.70000, 78.0
2.73500, 71.0
2.77000, 65.0
2.80500, 85.0
2.84000, 75.0
2.87500, 67.0
2.91000, 74.0
2.94500, 68.0
2.98000, 67.0
3.01500, 64.0
3.05000, 63.0
3.08500, 69.0
3.12000, 66.0
3.15500, 50.0
3.19000, 64.0
3.22500, 73.0
3.26000, 57.0
3.29500, 57.0
3.33000, 67.0
3.36500, 58.0
3.40000, 71.0
3.43500, 69.0
3.47000, 67.0
3.50500, 63.0
3.54000, 71.0
3.57500, 57.0
3.61000, 46.0
3.64500, 49.0
3.68000, 48.0
3.71500, 55.0
3.75000, 57.0
3.78500, 46.0
3.82000, 51.0
3.85500, 36.0
3.89000, 47.0
3.92500, 54.0
3.96000, 56.0
3.99500, 50.0
4.03000, 48.0
4.06500, 50.0
4.10000, 38.0
4.13500, 44.0
4.17000, 44.0
4.20500, 38.0
4.24000, 38.0
4.27500, 42.0
4.31000, 22.0
4.34500, 36.0
4.38000, 37.0
4.41500, 40.0
4.45000, 34.0
4.48500, 38.0
4.52000, 33.0
4.55500, 30.0
4.59000, 35.0
4.62500, 35.0
4.66000, 31.0
4.69500, 32.0
4.73000, 37.0
4.76500, 24.0
4.80000, 41.0
4.83500, 33.0
4.87000, 30.0
4.90500, 31.0
4.94000, 35.0
4.97500, 30.0
5.01000, 29.0
5.04500, 27.0
5.08000, 22.0
5.11500, 25.0
5.15000, 32.0
5.18500, 30.0
5.22000, 24.0
5.25500, 33.0
5.29000, 25.0
5.32500, 20.0
5.36000, 31.0
5.39500, 27.0
5.43000, 26.0
5.46500, 37.0
5.50000, 25.0
5.53500, 18.0
5.57000, 19.0
5.60500, 24.0
5.64000, 13.0
5.67500, 25.0
5.71000, 19.0
5.74500, 25.0
5.78000, 26.0
5.81500, 18.0
5.85000, 25.0
5.88500, 21.0
5.92000, 20.0
5.95500, 27.0
5.99000, 15.0
6.02500, 32.0
6.06000, 17.0
6.09500, 10.0
6.13000, 15.0
6.16500, 20.0
6.20000, 20.0
6.23500, 18.0
6.27000, 18.0
6.30500, 17.0
6.34000, 23.0
6.37500, 23.0
6.41000, 16.0
6.44500, 22.0
6.48000, 10.0
6.51500, 18.0
6.55000, 12.0
6.58500, 14.0
6.62000, 22.0
6.65500, 18.0
6.69000, 17.0
6.72500, 23.0
6.76000, 18.0
6.79500, 17.0
6.83000, 9.0
6.86500, 9.0
6.90000, 16.0
6.93500, 14.0
6.97000, 8.0
7.00500, 17.0
7.04000, 13.0
7.07500, 13.0
7.11000, 8.0
7.14500, 9.0
7.18000, 10.0
7.21500, 14.0
7.25000, 7.0
7.28500, 11.0
7.32000, 12.0
7.35500, 6.0
7.39000, 10.0
7.42500, 11.0
7.46000, 11.0
7.49500, 11.0
7.53000, 7.0
7.56500, 9.0
7.60000, 8.0
7.63500, 8.0
7.67000, 6.0
7.70500, 8.0
7.74000, 11.0
7.77500, 11.0
7.81000, 17.0
7.84500, 7.0
7.88000, 8.0
7.91500, 18.0
7.95000, 8.0
7.98500, 3.0
8.02000, 4.0
8.05500, 5.0
8.09000, 5.0
8.12500, 4.0
8.16000, 5.0
8.19500, 7.0
8.23000, 9.0
8.26500, 7.0
8.30000, 4.0
8.33500, 7.0
8.37000, 7.0
8.40500, 3.0
8.44000, 8.0
8.47500, 8.0
8.51000, 7.0
8.54500, 8.0
8.58000, 7.0
8.61500, 2.0
8.65000, 5.0
8.68500, 10.0
8.72000, 5.0
8.75500, 4.0
8.79000, 5.0
8.82500, 3.0
8.86000, 6.0
8.89500, 4.0
8.93000, 5.0
8.96500, 2.0
9.00000, 4.0
9.03500, 6.0
9.07000, 8.0
9.10500, 6.0
9.14000, 3.0
9.17500, 0.0
9.21000, 1.0
9.24500, 4.0
9.28000, 6.0
9.31500, 0.0
9.35000, 2.0
9.38500, 2.0
9.42000, 3.0
9.45500, 0.0
9.49000, 7.0
9.52500, 3.0
9.56000, 1.0
9.59500, 2.0
9.63000, 4.0
9.66500, 4.0
9.70000, 1.0
9.73500, 2.0
9.77000, 4.0
9.80500, 2.0
9.84000, 6.0
9.87500, 0.0
9.91000, 1.0
9.94500, 3.0
9.98000, 1.0
10.01500, 1.0
10.05000, 0.0
10.08500, 0.0
10.12000, 0.0
10.13500, 0.0
#ENDOFDATA   :