Folder: Sommarjobb-2024/Spectras 20250424 (part 2)

File: 20250425_10K_C6_3.txt
#FORMAT      : EMSA/MAS Spectral Data File
#VERSION     : 1.0
#TITLE       : 20250425_10K_C6_3
#DATE        : 24-APR-2025
#TIME        : 10:25
#OWNER       :
#NPOINTS     : 2048.0
#NCOLUMNS    : 1.0
#XUNITS      : keV
#YUNITS      : counts
#DATATYPE    : XY
#XPERCHAN    : 0.005
#OFFSET      : -0.1
#SIGNALTYPE  : EDS
#CHOFFSET    : 20.0
#LIVETIME    : 60.0013
#REALTIME    : 61.8638
#BEAMKV      : 10.0
#MAGCAM      : 700.0
#XTILTSTGE   : 0.0
#AZIMANGLE   : 0.0
#ELEVANGLE   : 29.0
#XPOSITION mm: 1.8685
#YPOSITION mm: -0.6548
#ZPOSITION mm: 13.5200
##OXINSTPT   : 2
##OXINSTSTROB: 67.50
#SPECTRUM    : Spectral Data Starts Here
-0.10000, 0.0
-0.06500, 3.0
-0.03000, 70.0
0.00500, 477.0
0.04000, 1060.0
0.07500, 739.0
0.11000, 199.0
0.14500, 91.0
0.18000, 96.0
0.21500, 95.0
0.25000, 115.0
0.28500, 136.0
0.32000, 86.0
0.35500, 85.0
0.39000, 139.0
0.42500, 261.0
0.46000, 1267.0
0.49500, 4254.0
0.53000, 5742.0
0.56500, 2619.0
0.60000, 439.0
0.63500, 105.0
0.67000, 107.0
0.70500, 113.0
0.74000, 136.0
0.77500, 153.0
0.81000, 175.0
0.84500, 148.0
0.88000, 158.0
0.91500, 186.0
0.95000, 183.0
0.98500, 192.0
1.02000, 181.0
1.05500, 199.0
1.09000, 194.0
1.12500, 194.0
1.16000, 182.0
1.19500, 196.0
1.23000, 195.0
1.26500, 187.0
1.30000, 186.0
1.33500, 197.0
1.37000, 192.0
1.40500, 197.0
1.44000, 219.0
1.47500, 195.0
1.51000, 190.0
1.54500, 235.0
1.58000, 224.0
1.61500, 303.0
1.65000, 1156.0
1.68500, 5123.0
1.72000, 12037.0
1.75500, 13397.0
1.79000, 7330.0
1.82500, 2318.0
1.86000, 755.0
1.89500, 330.0
1.93000, 141.0
1.96500, 98.0
2.00000, 84.0
2.03500, 90.0
2.07000, 105.0
2.10500, 88.0
2.14000, 87.0
2.17500, 116.0
2.21000, 128.0
2.24500, 233.0
2.28000, 349.0
2.31500, 404.0
2.35000, 292.0
2.38500, 190.0
2.42000, 150.0
2.45500, 122.0
2.49000, 100.0
2.52500, 116.0
2.56000, 85.0
2.59500, 84.0
2.63000, 96.0
2.66500, 76.0
2.70000, 77.0
2.73500, 70.0
2.77000, 65.0
2.80500, 72.0
2.84000, 73.0
2.87500, 73.0
2.91000, 56.0
2.94500, 68.0
2.98000, 76.0
3.01500, 59.0
3.05000, 66.0
3.08500, 69.0
3.12000, 51.0
3.15500, 79.0
3.19000, 62.0
3.22500, 61.0
3.26000, 53.0
3.29500, 69.0
3.33000, 49.0
3.36500, 57.0
3.40000, 65.0
3.43500, 74.0
3.47000, 85.0
3.50500, 75.0
3.54000, 59.0
3.57500, 60.0
3.61000, 54.0
3.64500, 62.0
3.68000, 41.0
3.71500, 48.0
3.75000, 55.0
3.78500, 43.0
3.82000, 46.0
3.85500, 50.0
3.89000, 46.0
3.92500, 44.0
3.96000, 43.0
3.99500, 45.0
4.03000, 53.0
4.06500, 47.0
4.10000, 43.0
4.13500, 44.0
4.17000, 28.0
4.20500, 42.0
4.24000, 35.0
4.27500, 42.0
4.31000, 42.0
4.34500, 32.0
4.38000, 32.0
4.41500, 34.0
4.45000, 31.0
4.48500, 39.0
4.52000, 34.0
4.55500, 41.0
4.59000, 37.0
4.62500, 31.0
4.66000, 31.0
4.69500, 31.0
4.73000, 30.0
4.76500, 39.0
4.80000, 31.0
4.83500, 32.0
4.87000, 27.0
4.90500, 31.0
4.94000, 36.0
4.97500, 24.0
5.01000, 24.0
5.04500, 29.0
5.08000, 27.0
5.11500, 29.0
5.15000, 28.0
5.18500, 36.0
5.22000, 23.0
5.25500, 23.0
5.29000, 28.0
5.32500, 13.0
5.36000, 20.0
5.39500, 21.0
5.43000, 20.0
5.46500, 18.0
5.50000, 26.0
5.53500, 28.0
5.57000, 24.0
5.60500, 24.0
5.64000, 21.0
5.67500, 21.0
5.71000, 18.0
5.74500, 18.0
5.78000, 23.0
5.81500, 20.0
5.85000, 16.0
5.88500, 29.0
5.92000, 17.0
5.95500, 18.0
5.99000, 14.0
6.02500, 10.0
6.06000, 23.0
6.09500, 26.0
6.13000, 10.0
6.16500, 18.0
6.20000, 21.0
6.23500, 13.0
6.27000, 14.0
6.30500, 12.0
6.34000, 21.0
6.37500, 11.0
6.41000, 26.0
6.44500, 12.0
6.48000, 12.0
6.51500, 14.0
6.55000, 10.0
6.58500, 10.0
6.62000, 14.0
6.65500, 13.0
6.69000, 14.0
6.72500, 13.0
6.76000, 15.0
6.79500, 6.0
6.83000, 11.0
6.86500, 16.0
6.90000, 11.0
6.93500, 19.0
6.97000, 10.0
7.00500, 17.0
7.04000, 13.0
7.07500, 6.0
7.11000, 15.0
7.14500, 9.0
7.18000, 7.0
7.21500, 13.0
7.25000, 7.0
7.28500, 11.0
7.32000, 8.0
7.35500, 9.0
7.39000, 9.0
7.42500, 5.0
7.46000, 10.0
7.49500, 9.0
7.53000, 5.0
7.56500, 7.0
7.60000, 8.0
7.63500, 5.0
7.67000, 11.0
7.70500, 5.0
7.74000, 7.0
7.77500, 10.0
7.81000, 9.0
7.84500, 7.0
7.88000, 7.0
7.91500, 6.0
7.95000, 7.0
7.98500, 7.0
8.02000, 6.0
8.05500, 5.0
8.09000, 6.0
8.12500, 3.0
8.16000, 9.0
8.19500, 6.0
8.23000, 6.0
8.26500, 3.0
8.30000, 9.0
8.33500, 2.0
8.37000, 6.0
8.40500, 5.0
8.44000, 5.0
8.47500, 7.0
8.51000, 3.0
8.54500, 7.0
8.58000, 3.0
8.61500, 5.0
8.65000, 6.0
8.68500, 5.0
8.72000, 3.0
8.75500, 2.0
8.79000, 7.0
8.82500, 2.0
8.86000, 5.0
8.89500, 2.0
8.93000, 8.0
8.96500, 3.0
9.00000, 4.0
9.03500, 2.0
9.07000, 2.0
9.10500, 3.0
9.14000, 3.0
9.17500, 2.0
9.21000, 5.0
9.24500, 5.0
9.28000, 4.0
9.31500, 5.0
9.35000, 0.0
9.38500, 4.0
9.42000, 1.0
9.45500, 1.0
9.49000, 3.0
9.52500, 1.0
9.56000, 2.0
9.59500, 3.0
9.63000, 0.0
9.66500, 1.0
9.70000, 1.0
9.73500, 1.0
9.77000, 3.0
9.80500, 0.0
9.84000, 0.0
9.87500, 2.0
9.91000, 1.0
9.94500, 1.0
9.98000, 0.0
10.01500, 0.0
10.05000, 0.0
10.08500, 0.0
10.12000, 0.0
10.13500, 0.0
#ENDOFDATA   :

File: 20250425_10K_C7_2.txt
#FORMAT      : EMSA/MAS Spectral Data File
#VERSION     : 1.0
#TITLE       : 20250425_10K_C7_2
#DATE        : 24-APR-2025
#TIME        : 10:41
#OWNER       :
#NPOINTS     : 2048.0
#NCOLUMNS    : 1.0
#XUNITS      : keV
#YUNITS      : counts
#DATATYPE    : XY
#XPERCHAN    : 0.005
#OFFSET      : -0.1
#SIGNALTYPE  : EDS
#CHOFFSET    : 20.0
#LIVETIME    : 60.0
#REALTIME    : 61.5883
#BEAMKV      : 10.0
#MAGCAM      : 330.0
#XTILTSTGE   : 0.0
#AZIMANGLE   : 0.0
#ELEVANGLE   : 29.0
#XPOSITION mm: 1.8218
#YPOSITION mm: -0.9598
#ZPOSITION mm: 13.5200
##OXINSTPT   : 2
##OXINSTSTROB: 67.53
#SPECTRUM    : Spectral Data Starts Here
-0.10000, 0.0
-0.06500, 4.0
-0.03000, 72.0
0.00500, 454.0
0.04000, 1073.0
0.07500, 824.0
0.11000, 423.0
0.14500, 618.0
0.18000, 589.0
0.21500, 296.0
0.25000, 202.0
0.28500, 164.0
0.32000, 85.0
0.35500, 62.0
0.39000, 86.0
0.42500, 101.0
0.46000, 175.0
0.49500, 440.0
0.53000, 588.0
0.56500, 370.0
0.60000, 232.0
0.63500, 180.0
0.67000, 183.0
0.70500, 184.0
0.74000, 184.0
0.77500, 188.0
0.81000, 213.0
0.84500, 235.0
0.88000, 255.0
0.91500, 216.0
0.95000, 224.0
0.98500, 232.0
1.02000, 246.0
1.05500, 252.0
1.09000, 235.0
1.12500, 237.0
1.16000, 227.0
1.19500, 231.0
1.23000, 246.0
1.26500, 249.0
1.30000, 243.0
1.33500, 230.0
1.37000, 236.0
1.40500, 240.0
1.44000, 258.0
1.47500, 230.0
1.51000, 241.0
1.54500, 242.0
1.58000, 220.0
1.61500, 259.0
1.65000, 602.0
1.68500, 2154.0
1.72000, 4760.0
1.75500, 5512.0
1.79000, 2993.0
1.82500, 1034.0
1.86000, 455.0
1.89500, 233.0
1.93000, 191.0
1.96500, 185.0
2.00000, 222.0
2.03500, 269.0
2.07000, 199.0
2.10500, 187.0
2.14000, 192.0
2.17500, 230.0
2.21000, 630.0
2.24500, 2035.0
2.28000, 4426.0
2.31500, 5343.0
2.35000, 3685.0
2.38500, 1961.0
2.42000, 1224.0
2.45500, 874.0
2.49000, 611.0
2.52500, 360.0
2.56000, 199.0
2.59500, 141.0
2.63000, 116.0
2.66500, 119.0
2.70000, 89.0
2.73500, 98.0
2.77000, 96.0
2.80500, 100.0
2.84000, 93.0
2.87500, 100.0
2.91000, 90.0
2.94500, 99.0
2.98000, 88.0
3.01500, 77.0
3.05000, 75.0
3.08500, 69.0
3.12000, 75.0
3.15500, 92.0
3.19000, 70.0
3.22500, 77.0
3.26000, 85.0
3.29500, 92.0
3.33000, 73.0
3.36500, 79.0
3.40000, 74.0
3.43500, 61.0
3.47000, 77.0
3.50500, 64.0
3.54000, 85.0
3.57500, 70.0
3.61000, 69.0
3.64500, 65.0
3.68000, 63.0
3.71500, 83.0
3.75000, 75.0
3.78500, 59.0
3.82000, 63.0
3.85500, 66.0
3.89000, 58.0
3.92500, 69.0
3.96000, 56.0
3.99500, 65.0
4.03000, 69.0
4.06500, 71.0
4.10000, 58.0
4.13500, 63.0
4.17000, 50.0
4.20500, 66.0
4.24000, 46.0
4.27500, 62.0
4.31000, 61.0
4.34500, 59.0
4.38000, 50.0
4.41500, 48.0
4.45000, 41.0
4.48500, 48.0
4.52000, 60.0
4.55500, 44.0
4.59000, 51.0
4.62500, 65.0
4.66000, 57.0
4.69500, 59.0
4.73000, 54.0
4.76500, 52.0
4.80000, 57.0
4.83500, 43.0
4.87000, 45.0
4.90500, 42.0
4.94000, 39.0
4.97500, 41.0
5.01000, 48.0
5.04500, 39.0
5.08000, 35.0
5.11500, 48.0
5.15000, 49.0
5.18500, 42.0
5.22000, 50.0
5.25500, 40.0
5.29000, 36.0
5.32500, 48.0
5.36000, 38.0
5.39500, 40.0
5.43000, 32.0
5.46500, 32.0
5.50000, 33.0
5.53500, 38.0
5.57000, 45.0
5.60500, 34.0
5.64000, 51.0
5.67500, 32.0
5.71000, 23.0
5.74500, 38.0
5.78000, 29.0
5.81500, 37.0
5.85000, 31.0
5.88500, 38.0
5.92000, 26.0
5.95500, 31.0
5.99000, 36.0
6.02500, 30.0
6.06000, 27.0
6.09500, 27.0
6.13000, 31.0
6.16500, 34.0
6.20000, 34.0
6.23500, 27.0
6.27000, 28.0
6.30500, 34.0
6.34000, 27.0
6.37500, 33.0
6.41000, 32.0
6.44500, 23.0
6.48000, 26.0
6.51500, 37.0
6.55000, 22.0
6.58500, 28.0
6.62000, 26.0
6.65500, 26.0
6.69000, 20.0
6.72500, 19.0
6.76000, 26.0
6.79500, 17.0
6.83000, 28.0
6.86500, 24.0
6.90000, 24.0
6.93500, 30.0
6.97000, 20.0
7.00500, 32.0
7.04000, 21.0
7.07500, 22.0
7.11000, 22.0
7.14500, 24.0
7.18000, 15.0
7.21500, 24.0
7.25000, 15.0
7.28500, 27.0
7.32000, 15.0
7.35500, 21.0
7.39000, 17.0
7.42500, 16.0
7.46000, 24.0
7.49500, 15.0
7.53000, 19.0
7.56500, 24.0
7.60000, 16.0
7.63500, 12.0
7.67000, 8.0
7.70500, 6.0
7.74000, 17.0
7.77500, 16.0
7.81000, 14.0
7.84500, 10.0
7.88000, 14.0
7.91500, 18.0
7.95000, 12.0
7.98500, 20.0
8.02000, 15.0
8.05500, 10.0
8.09000, 14.0
8.12500, 15.0
8.16000, 14.0
8.19500, 14.0
8.23000, 15.0
8.26500, 13.0
8.30000, 12.0
8.33500, 13.0
8.37000, 14.0
8.40500, 13.0
8.44000, 10.0
8.47500, 9.0
8.51000, 15.0
8.54500, 8.0
8.58000, 8.0
8.61500, 12.0
8.65000, 10.0
8.68500, 8.0
8.72000, 12.0
8.75500, 8.0
8.79000, 13.0
8.82500, 11.0
8.86000, 14.0
8.89500, 10.0
8.93000, 13.0
8.96500, 11.0
9.00000, 8.0
9.03500, 12.0
9.07000, 7.0
9.10500, 5.0
9.14000, 10.0
9.17500, 9.0
9.21000, 7.0
9.24500, 12.0
9.28000, 7.0
9.31500, 3.0
9.35000, 7.0
9.38500, 4.0
9.42000, 5.0
9.45500, 7.0
9.49000, 7.0
9.52500, 6.0
9.56000, 0.0
9.59500, 7.0
9.63000, 4.0
9.66500, 1.0
9.70000, 4.0
9.73500, 3.0
9.77000, 2.0
9.80500, 7.0
9.84000, 1.0
9.87500, 1.0
9.91000, 0.0
9.94500, 2.0
9.98000, 0.0
10.01500, 1.0
10.05000, 0.0
10.08500, 0.0
10.12000, 0.0
10.13500, 0.0
#ENDOFDATA   :

File: 20250425_10K_C7_3.txt
#FORMAT      : EMSA/MAS Spectral Data File
#VERSION     : 1.0
#TITLE       : 20250425_10K_C7_3
#DATE        : 24-APR-2025
#TIME        : 10:42
#OWNER       :
#NPOINTS     : 2048.0
#NCOLUMNS    : 1.0
#XUNITS      : keV
#YUNITS      : counts
#DATATYPE    : XY
#XPERCHAN    : 0.005
#OFFSET      : -0.1
#SIGNALTYPE  : EDS
#CHOFFSET    : 20.0
#LIVETIME    : 60.0
#REALTIME    : 61.6076
#BEAMKV      : 10.0
#MAGCAM      : 330.0
#XTILTSTGE   : 0.0
#AZIMANGLE   : 0.0
#ELEVANGLE   : 29.0
#XPOSITION mm: 1.8218
#YPOSITION mm: -0.9598
#ZPOSITION mm: 13.5200
##OXINSTPT   : 2
##OXINSTSTROB: 67.56
#SPECTRUM    : Spectral Data Starts Here
-0.10000, 0.0
-0.06500, 4.0
-0.03000, 64.0
0.00500, 464.0
0.04000, 1052.0
0.07500, 823.0
0.11000, 432.0
0.14500, 626.0
0.18000, 547.0
0.21500, 288.0
0.25000, 214.0
0.28500, 169.0
0.32000, 89.0
0.35500, 78.0
0.39000, 69.0
0.42500, 102.0
0.46000, 175.0
0.49500, 456.0
0.53000, 599.0
0.56500, 425.0
0.60000, 211.0
0.63500, 181.0
0.67000, 173.0
0.70500, 199.0
0.74000, 192.0
0.77500, 197.0
0.81000, 200.0
0.84500, 211.0
0.88000, 226.0
0.91500, 243.0
0.95000, 238.0
0.98500, 238.0
1.02000, 237.0
1.05500, 226.0
1.09000, 245.0
1.12500, 239.0
1.16000, 233.0
1.19500, 248.0
1.23000, 233.0
1.26500, 215.0
1.30000, 241.0
1.33500, 237.0
1.37000, 228.0
1.40500, 246.0
1.44000, 231.0
1.47500, 238.0
1.51000, 258.0
1.54500, 253.0
1.58000, 246.0
1.61500, 265.0
1.65000, 568.0
1.68500, 2173.0
1.72000, 4880.0
1.75500, 5405.0
1.79000, 3116.0
1.82500, 1098.0
1.86000, 394.0
1.89500, 261.0
1.93000, 176.0
1.96500, 222.0
2.00000, 223.0
2.03500, 234.0
2.07000, 233.0
2.10500, 212.0
2.14000, 186.0
2.17500, 231.0
2.21000, 675.0
2.24500, 2037.0
2.28000, 4526.0
2.31500, 5375.0
2.35000, 3631.0
2.38500, 1959.0
2.42000, 1274.0
2.45500, 840.0
2.49000, 571.0
2.52500, 360.0
2.56000, 228.0
2.59500, 156.0
2.63000, 131.0
2.66500, 108.0
2.70000, 99.0
2.73500, 89.0
2.77000, 99.0
2.80500, 97.0
2.84000, 102.0
2.87500, 91.0
2.91000, 87.0
2.94500, 84.0
2.98000, 77.0
3.01500, 73.0
3.05000, 82.0
3.08500, 91.0
3.12000, 61.0
3.15500, 95.0
3.19000, 75.0
3.22500, 70.0
3.26000, 82.0
3.29500, 88.0
3.33000, 61.0
3.36500, 65.0
3.40000, 76.0
3.43500, 71.0
3.47000, 68.0
3.50500, 75.0
3.54000, 70.0
3.57500, 70.0
3.61000, 76.0
3.64500, 76.0
3.68000, 72.0
3.71500, 72.0
3.75000, 65.0
3.78500, 53.0
3.82000, 68.0
3.85500, 78.0
3.89000, 68.0
3.92500, 72.0
3.96000, 61.0
3.99500, 65.0
4.03000, 79.0
4.06500, 75.0
4.10000, 60.0
4.13500, 65.0
4.17000, 59.0
4.20500, 60.0
4.24000, 52.0
4.27500, 45.0
4.31000, 48.0
4.34500, 59.0
4.38000, 51.0
4.41500, 54.0
4.45000, 48.0
4.48500, 52.0
4.52000, 49.0
4.55500, 62.0
4.59000, 55.0
4.62500, 56.0
4.66000, 59.0
4.69500, 47.0
4.73000, 47.0
4.76500, 43.0
4.80000, 64.0
4.83500, 52.0
4.87000, 47.0
4.90500, 40.0
4.94000, 39.0
4.97500, 42.0
5.01000, 56.0
5.04500, 40.0
5.08000, 39.0
5.11500, 40.0
5.15000, 46.0
5.18500, 31.0
5.22000, 34.0
5.25500, 36.0
5.29000, 31.0
5.32500, 42.0
5.36000, 43.0
5.39500, 36.0
5.43000, 35.0
5.46500, 45.0
5.50000, 39.0
5.53500, 30.0
5.57000, 34.0
5.60500, 36.0
5.64000, 31.0
5.67500, 33.0
5.71000, 28.0
5.74500, 32.0
5.78000, 38.0
5.81500, 31.0
5.85000, 35.0
5.88500, 38.0
5.92000, 37.0
5.95500, 30.0
5.99000, 27.0
6.02500, 31.0
6.06000, 36.0
6.09500, 42.0
6.13000, 31.0
6.16500, 25.0
6.20000, 27.0
6.23500, 33.0
6.27000, 30.0
6.30500, 26.0
6.34000, 24.0
6.37500, 27.0
6.41000, 22.0
6.44500, 26.0
6.48000, 25.0
6.51500, 20.0
6.55000, 19.0
6.58500, 21.0
6.62000, 27.0
6.65500, 31.0
6.69000, 27.0
6.72500, 29.0
6.76000, 22.0
6.79500, 25.0
6.83000, 25.0
6.86500, 27.0
6.90000, 23.0
6.93500, 25.0
6.97000, 23.0
7.00500, 19.0
7.04000, 22.0
7.07500, 24.0
7.11000, 10.0
7.14500, 21.0
7.18000, 29.0
7.21500, 28.0
7.25000, 23.0
7.28500, 16.0
7.32000, 16.0
7.35500, 20.0
7.39000, 21.0
7.42500, 18.0
7.46000, 20.0
7.49500, 19.0
7.53000, 22.0
7.56500, 13.0
7.60000, 18.0
7.63500, 13.0
7.67000, 16.0
7.70500, 19.0
7.74000, 21.0
7.77500, 17.0
7.81000, 22.0
7.84500, 11.0
7.88000, 18.0
7.91500, 15.0
7.95000, 12.0
7.98500, 18.0
8.02000, 20.0
8.05500, 19.0
8.09000, 14.0
8.12500, 13.0
8.16000, 14.0
8.19500, 19.0
8.23000, 9.0
8.26500, 12.0
8.30000, 14.0
8.33500, 11.0
8.37000, 7.0
8.40500, 9.0
8.44000, 15.0
8.47500, 6.0
8.51000, 12.0
8.54500, 6.0
8.58000, 9.0
8.61500, 11.0
8.65000, 16.0
8.68500, 12.0
8.72000, 6.0
8.75500, 10.0
8.79000, 9.0
8.82500, 9.0
8.86000, 9.0
8.89500, 5.0
8.93000, 10.0
8.96500, 6.0
9.00000, 14.0
9.03500, 5.0
9.07000, 8.0
9.10500, 8.0
9.14000, 3.0
9.17500, 4.0
9.21000, 9.0
9.24500, 7.0
9.28000, 7.0
9.31500, 6.0
9.35000, 7.0
9.38500, 6.0
9.42000, 6.0
9.45500, 5.0
9.49000, 6.0
9.52500, 6.0
9.56000, 4.0
9.59500, 5.0
9.63000, 1.0
9.66500, 4.0
9.70000, 3.0
9.73500, 1.0
9.77000, 3.0
9.80500, 2.0
9.84000, 2.0
9.87500, 0.0
9.91000, 0.0
9.94500, 0.0
9.98000, 0.0
10.01500, 0.0
10.05000, 1.0
10.08500, 0.0
10.12000, 0.0
10.13500, 0.0
#ENDOFDATA   :

File: 20250425_10K_D2_2.txt
#FORMAT      : EMSA/MAS Spectral Data File
#VERSION     : 1.0
#TITLE       : 20250425_10K_D2_2
#DATE        : 24-APR-2025
#TIME        : 10:28
#OWNER       :
#NPOINTS     : 2048.0
#NCOLUMNS    : 1.0
#XUNITS      : keV
#YUNITS      : counts
#DATATYPE    : XY
#XPERCHAN    : 0.005
#OFFSET      : -0.1
#SIGNALTYPE  : EDS
#CHOFFSET    : 20.0
#LIVETIME    : 60.0063
#REALTIME    : 61.8839
#BEAMKV      : 10.0
#MAGCAM      : 1800.0
#XTILTSTGE   : 0.0
#AZIMANGLE   : 0.0
#ELEVANGLE   : 29.0
#XPOSITION mm: 2.4460
#YPOSITION mm: 0.1345
#ZPOSITION mm: 13.5200
##OXINSTPT   : 2
##OXINSTSTROB: 67.59
#SPECTRUM    : Spectral Data Starts Here
-0.10000, 0.0
-0.06500, 2.0
-0.03000, 68.0
0.00500, 466.0
0.04000, 1037.0
0.07500, 744.0
0.11000, 181.0
0.14500, 56.0
0.18000, 41.0
0.21500, 82.0
0.25000, 123.0
0.28500, 128.0
0.32000, 82.0
0.35500, 88.0
0.39000, 137.0
0.42500, 283.0
0.46000, 1324.0
0.49500, 4606.0
0.53000, 6173.0
0.56500, 2692.0
0.60000, 464.0
0.63500, 100.0
0.67000, 93.0
0.70500, 117.0
0.74000, 129.0
0.77500, 143.0
0.81000, 151.0
0.84500, 171.0
0.88000, 149.0
0.91500, 163.0
0.95000, 189.0
0.98500, 198.0
1.02000, 185.0
1.05500, 184.0
1.09000, 194.0
1.12500, 210.0
1.16000, 202.0
1.19500, 195.0
1.23000, 197.0
1.26500, 191.0
1.30000, 203.0
1.33500, 194.0
1.37000, 189.0
1.40500, 213.0
1.44000, 214.0
1.47500, 212.0
1.51000, 221.0
1.54500, 233.0
1.58000, 253.0
1.61500, 300.0
1.65000, 1202.0
1.68500, 5465.0
1.72000, 12578.0
1.75500, 14268.0
1.79000, 7651.0
1.82500, 2484.0
1.86000, 778.0
1.89500, 306.0
1.93000, 132.0
1.96500, 102.0
2.00000, 96.0
2.03500, 95.0
2.07000, 90.0
2.10500, 83.0
2.14000, 75.0
2.17500, 89.0
2.21000, 97.0
2.24500, 111.0
2.28000, 108.0
2.31500, 128.0
2.35000, 105.0
2.38500, 83.0
2.42000, 94.0
2.45500, 73.0
2.49000, 81.0
2.52500, 83.0
2.56000, 74.0
2.59500, 78.0
2.63000, 83.0
2.66500, 67.0
2.70000, 69.0
2.73500, 82.0
2.77000, 57.0
2.80500, 69.0
2.84000, 75.0
2.87500, 81.0
2.91000, 65.0
2.94500, 59.0
2.98000, 74.0
3.01500, 71.0
3.05000, 59.0
3.08500, 52.0
3.12000, 69.0
3.15500, 66.0
3.19000, 58.0
3.22500, 69.0
3.26000, 57.0
3.29500, 64.0
3.33000, 65.0
3.36500, 41.0
3.40000, 71.0
3.43500, 62.0
3.47000, 83.0
3.50500, 75.0
3.54000, 62.0
3.57500, 69.0
3.61000, 40.0
3.64500, 48.0
3.68000, 38.0
3.71500, 53.0
3.75000, 39.0
3.78500, 49.0
3.82000, 51.0
3.85500, 48.0
3.89000, 48.0
3.92500, 35.0
3.96000, 50.0
3.99500, 43.0
4.03000, 36.0
4.06500, 47.0
4.10000, 38.0
4.13500, 45.0
4.17000, 34.0
4.20500, 39.0
4.24000, 36.0
4.27500, 29.0
4.31000, 33.0
4.34500, 39.0
4.38000, 37.0
4.41500, 33.0
4.45000, 40.0
4.48500, 32.0
4.52000, 35.0
4.55500, 32.0
4.59000, 32.0
4.62500, 37.0
4.66000, 36.0
4.69500, 30.0
4.73000, 31.0
4.76500, 34.0
4.80000, 35.0
4.83500, 32.0
4.87000, 38.0
4.90500, 30.0
4.94000, 29.0
4.97500, 26.0
5.01000, 22.0
5.04500, 23.0
5.08000, 19.0
5.11500, 18.0
5.15000, 37.0
5.18500, 27.0
5.22000, 24.0
5.25500, 26.0
5.29000, 14.0
5.32500, 27.0
5.36000, 31.0
5.39500, 44.0
5.43000, 26.0
5.46500, 24.0
5.50000, 22.0
5.53500, 22.0
5.57000, 26.0
5.60500, 17.0
5.64000, 17.0
5.67500, 18.0
5.71000, 23.0
5.74500, 20.0
5.78000, 23.0
5.81500, 24.0
5.85000, 30.0
5.88500, 20.0
5.92000, 12.0
5.95500, 21.0
5.99000, 11.0
6.02500, 19.0
6.06000, 14.0
6.09500, 17.0
6.13000, 19.0
6.16500, 22.0
6.20000, 19.0
6.23500, 18.0
6.27000, 13.0
6.30500, 14.0
6.34000, 9.0
6.37500, 13.0
6.41000, 20.0
6.44500, 15.0
6.48000, 10.0
6.51500, 17.0
6.55000, 25.0
6.58500, 13.0
6.62000, 18.0
6.65500, 10.0
6.69000, 11.0
6.72500, 14.0
6.76000, 17.0
6.79500, 12.0
6.83000, 10.0
6.86500, 20.0
6.90000, 17.0
6.93500, 9.0
6.97000, 10.0
7.00500, 9.0
7.04000, 8.0
7.07500, 10.0
7.11000, 12.0
7.14500, 9.0
7.18000, 16.0
7.21500, 8.0
7.25000, 7.0
7.28500, 11.0
7.32000, 6.0
7.35500, 10.0
7.39000, 11.0
7.42500, 11.0
7.46000, 9.0
7.49500, 7.0
7.53000, 8.0
7.56500, 9.0
7.60000, 7.0
7.63500, 5.0
7.67000, 4.0
7.70500, 7.0
7.74000, 7.0
7.77500, 4.0
7.81000, 9.0
7.84500, 7.0
7.88000, 8.0
7.91500, 5.0
7.95000, 4.0
7.98500, 4.0
8.02000, 3.0
8.05500, 4.0
8.09000, 6.0
8.12500, 5.0
8.16000, 4.0
8.19500, 10.0
8.23000, 5.0
8.26500, 5.0
8.30000, 7.0
8.33500, 5.0
8.37000, 2.0
8.40500, 7.0
8.44000, 2.0
8.47500, 5.0
8.51000, 3.0
8.54500, 2.0
8.58000, 2.0
8.61500, 3.0
8.65000, 3.0
8.68500, 2.0
8.72000, 6.0
8.75500, 2.0
8.79000, 2.0
8.82500, 2.0
8.86000, 1.0
8.89500, 1.0
8.93000, 1.0
8.96500, 3.0
9.00000, 2.0
9.03500, 3.0
9.07000, 5.0
9.10500, 4.0
9.14000, 1.0
9.17500, 3.0
9.21000, 1.0
9.24500, 0.0
9.28000, 1.0
9.31500, 5.0
9.35000, 2.0
9.38500, 2.0
9.42000, 2.0
9.45500, 2.0
9.49000, 2.0
9.52500, 1.0
9.56000, 2.0
9.59500, 1.0
9.63000, 1.0
9.66500, 1.0
9.70000, 1.0
9.73500, 0.0
9.77000, 0.0
9.80500, 0.0
9.84000, 0.0
9.87500, 0.0
9.91000, 1.0
9.94500, 0.0
9.98000, 0.0
10.01500, 0.0
10.05000, 0.0
10.08500, 0.0
10.12000, 0.0
10.13500, 0.0
#ENDOFDATA   :

File: 20250425_10K_D2_3.txt
#FORMAT      : EMSA/MAS Spectral Data File
#VERSION     : 1.0
#TITLE       : 20250425_10K_D2_3
#DATE        : 24-APR-2025
#TIME        : 10:29
#OWNER       :
#NPOINTS     : 2048.0
#NCOLUMNS    : 1.0
#XUNITS      : keV
#YUNITS      : counts
#DATATYPE    : XY
#XPERCHAN    : 0.005
#OFFSET      : -0.1
#SIGNALTYPE  : EDS
#CHOFFSET    : 20.0
#LIVETIME    : 60.0123
#REALTIME    : 61.9111
#BEAMKV      : 10.0
#MAGCAM      : 1800.0
#XTILTSTGE   : 0.0
#AZIMANGLE   : 0.0
#ELEVANGLE   : 29.0
#XPOSITION mm: 2.4460
#YPOSITION mm: 0.1345
#ZPOSITION mm: 13.5200
##OXINSTPT   : 2
##OXINSTSTROB: 67.50
#SPECTRUM    : Spectral Data Starts Here
-0.10000, 0.0
-0.06500, 2.0
-0.03000, 63.0
0.00500, 515.0
0.04000, 1054.0
0.07500, 732.0
0.11000, 189.0
0.14500, 59.0
0.18000, 53.0
0.21500, 68.0
0.25000, 102.0
0.28500, 114.0
0.32000, 89.0
0.35500, 93.0
0.39000, 125.0
0.42500, 271.0
0.46000, 1366.0
0.49500, 4620.0
0.53000, 6157.0
0.56500, 2738.0
0.60000, 451.0
0.63500, 109.0
0.67000, 116.0
0.70500, 115.0
0.74000, 151.0
0.77500, 151.0
0.81000, 137.0
0.84500, 170.0
0.88000, 169.0
0.91500, 164.0
0.95000, 178.0
0.98500, 168.0
1.02000, 189.0
1.05500, 218.0
1.09000, 184.0
1.12500, 208.0
1.16000, 203.0
1.19500, 193.0
1.23000, 215.0
1.26500, 178.0
1.30000, 195.0
1.33500, 176.0
1.37000, 207.0
1.40500, 211.0
1.44000, 207.0
1.47500, 206.0
1.51000, 227.0
1.54500, 231.0
1.58000, 214.0
1.61500, 315.0
1.65000, 1206.0
1.68500, 5362.0
1.72000, 12770.0
1.75500, 14115.0
1.79000, 7683.0
1.82500, 2490.0
1.86000, 815.0
1.89500, 309.0
1.93000, 121.0
1.96500, 72.0
2.00000, 97.0
2.03500, 88.0
2.07000, 83.0
2.10500, 80.0
2.14000, 88.0
2.17500, 79.0
2.21000, 83.0
2.24500, 115.0
2.28000, 110.0
2.31500, 98.0
2.35000, 110.0
2.38500, 86.0
2.42000, 89.0
2.45500, 95.0
2.49000, 84.0
2.52500, 74.0
2.56000, 93.0
2.59500, 83.0
2.63000, 68.0
2.66500, 79.0
2.70000, 81.0
2.73500, 77.0
2.77000, 82.0
2.80500, 79.0
2.84000, 69.0
2.87500, 78.0
2.91000, 71.0
2.94500, 72.0
2.98000, 65.0
3.01500, 61.0
3.05000, 47.0
3.08500, 71.0
3.12000, 54.0
3.15500, 63.0
3.19000, 66.0
3.22500, 53.0
3.26000, 55.0
3.29500, 62.0
3.33000, 51.0
3.36500, 65.0
3.40000, 61.0
3.43500, 64.0
3.47000, 85.0
3.50500, 74.0
3.54000, 70.0
3.57500, 66.0
3.61000, 63.0
3.64500, 48.0
3.68000, 49.0
3.71500, 41.0
3.75000, 42.0
3.78500, 43.0
3.82000, 55.0
3.85500, 54.0
3.89000, 40.0
3.92500, 47.0
3.96000, 52.0
3.99500, 52.0
4.03000, 45.0
4.06500, 39.0
4.10000, 37.0
4.13500, 47.0
4.17000, 37.0
4.20500, 41.0
4.24000, 37.0
4.27500, 37.0
4.31000, 32.0
4.34500, 40.0
4.38000, 41.0
4.41500, 38.0
4.45000, 33.0
4.48500, 40.0
4.52000, 37.0
4.55500, 34.0
4.59000, 34.0
4.62500, 28.0
4.66000, 32.0
4.69500, 41.0
4.73000, 25.0
4.76500, 31.0
4.80000, 32.0
4.83500, 34.0
4.87000, 28.0
4.90500, 33.0
4.94000, 31.0
4.97500, 27.0
5.01000, 31.0
5.04500, 23.0
5.08000, 32.0
5.11500, 30.0
5.15000, 18.0
5.18500, 26.0
5.22000, 19.0
5.25500, 21.0
5.29000, 21.0
5.32500, 19.0
5.36000, 21.0
5.39500, 27.0
5.43000, 18.0
5.46500, 24.0
5.50000, 17.0
5.53500, 17.0
5.57000, 20.0
5.60500, 21.0
5.64000, 16.0
5.67500, 18.0
5.71000, 24.0
5.74500, 18.0
5.78000, 21.0
5.81500, 23.0
5.85000, 17.0
5.88500, 20.0
5.92000, 16.0
5.95500, 23.0
5.99000, 20.0
6.02500, 17.0
6.06000, 16.0
6.09500, 17.0
6.13000, 20.0
6.16500, 25.0
6.20000, 20.0
6.23500, 15.0
6.27000, 18.0
6.30500, 17.0
6.34000, 10.0
6.37500, 15.0
6.41000, 14.0
6.44500, 12.0
6.48000, 10.0
6.51500, 14.0
6.55000, 15.0
6.58500, 11.0
6.62000, 21.0
6.65500, 13.0
6.69000, 15.0
6.72500, 7.0
6.76000, 12.0
6.79500, 17.0
6.83000, 11.0
6.86500, 12.0
6.90000, 8.0
6.93500, 14.0
6.97000, 12.0
7.00500, 3.0
7.04000, 11.0
7.07500, 9.0
7.11000, 9.0
7.14500, 12.0
7.18000, 10.0
7.21500, 17.0
7.25000, 10.0
7.28500, 12.0
7.32000, 9.0
7.35500, 6.0
7.39000, 11.0
7.42500, 5.0
7.46000, 8.0
7.49500, 10.0
7.53000, 9.0
7.56500, 8.0
7.60000, 10.0
7.63500, 6.0
7.67000, 10.0
7.70500, 7.0
7.74000, 12.0
7.77500, 12.0
7.81000, 10.0
7.84500, 8.0
7.88000, 13.0
7.91500, 5.0
7.95000, 4.0
7.98500, 10.0
8.02000, 7.0
8.05500, 5.0
8.09000, 7.0
8.12500, 10.0
8.16000, 11.0
8.19500, 7.0
8.23000, 4.0
8.26500, 8.0
8.30000, 6.0
8.33500, 5.0
8.37000, 2.0
8.40500, 1.0
8.44000, 4.0
8.47500, 6.0
8.51000, 4.0
8.54500, 7.0
8.58000, 6.0
8.61500, 4.0
8.65000, 6.0
8.68500, 1.0
8.72000, 3.0
8.75500, 6.0
8.79000, 5.0
8.82500, 9.0
8.86000, 3.0
8.89500, 3.0
8.93000, 2.0
8.96500, 1.0
9.00000, 0.0
9.03500, 1.0
9.07000, 5.0
9.10500, 3.0
9.14000, 4.0
9.17500, 1.0
9.21000, 3.0
9.24500, 4.0
9.28000, 3.0
9.31500, 0.0
9.35000, 1.0
9.38500, 1.0
9.42000, 2.0
9.45500, 1.0
9.49000, 0.0
9.52500, 1.0
9.56000, 2.0
9.59500, 2.0
9.63000, 1.0
9.66500, 2.0
9.70000, 3.0
9.73500, 1.0
9.77000, 0.0
9.80500, 0.0
9.84000, 1.0
9.87500, 2.0
9.91000, 1.0
9.94500, 0.0
9.98000, 0.0
10.01500, 0.0
10.05000, 0.0
10.08500, 0.0
10.12000, 0.0
10.13500, 0.0
#ENDOFDATA   :