Folder: Sommarjobb-2024/Spectras 300724 (part 3)

File: C15A1_10k_310724_2.txt
#FORMAT      : EMSA/MAS Spectral Data File
#VERSION     : 1.0
#TITLE       : C15A1_10k_310724_2
#DATE        : 30-JUL-2024
#TIME        : 10:17
#OWNER       :
#NPOINTS     : 2048.0
#NCOLUMNS    : 1.0
#XUNITS      : keV
#YUNITS      : counts
#DATATYPE    : XY
#XPERCHAN    : 0.005
#OFFSET      : -0.1
#SIGNALTYPE  : EDS
#CHOFFSET    : 20.0
#LIVETIME    : 60.0789
#REALTIME    : 60.7653
#BEAMKV      : 10.0
#MAGCAM      : 4300.0
#XTILTSTGE   : 0.0
#AZIMANGLE   : 0.0
#ELEVANGLE   : 25.5
#XPOSITION mm: -2.7680
#YPOSITION mm: -1.2153
#ZPOSITION mm: 13.8350
##OXINSTPT   : 2
##OXINSTSTROB: 69.70
##OXINSTELEMS: 6,8,29,79,78,14
##OXINSTLABEL: 6, 0.277, C K?1_2
##OXINSTLABEL: 8, 0.525, O K?1
##OXINSTLABEL: 29, 8.048, Cu K?1
##OXINSTLABEL: 29, 8.905, Cu K?1
##OXINSTLABEL: 29, 0.930, Cu L?1,2
##OXINSTLABEL: 29, 0.832, Cu L?
##OXINSTLABEL: 29, 0.811, Cu Ll
##OXINSTLABEL: 79, 9.713, Au L?1
##OXINSTLABEL: 79, 8.494, Au Ll
##OXINSTLABEL: 79, 2.123, Au M?1
##OXINSTLABEL: 79, 2.410, Au M?
##OXINSTLABEL: 79, 1.648, Au M?2
##OXINSTLABEL: 79, 0.265, Au N4-N6
##OXINSTLABEL: 79, 0.251, Au N5-N6,7
##OXINSTLABEL: 78, 9.442, Pt L?1
##OXINSTLABEL: 78, 9.975, Pt L?
##OXINSTLABEL: 78, 8.268, Pt Ll
##OXINSTLABEL: 78, 2.050, Pt M?1
##OXINSTLABEL: 78, 2.331, Pt M?
##OXINSTLABEL: 78, 1.592, Pt M?2
##OXINSTLABEL: 78, 0.258, Pt N4-N6
##OXINSTLABEL: 78, 0.244, Pt N5-N6,7
##OXINSTLABEL: 14, 1.740, Si K?1
#SPECTRUM    : Spectral Data Starts Here
-0.10000, 1.0
-0.06500, 6.0
-0.03000, 110.0
0.00500, 684.0
0.04000, 1317.0
0.07500, 936.0
0.11000, 223.0
0.14500, 148.0
0.18000, 136.0
0.21500, 59.0
0.25000, 39.0
0.28500, 29.0
0.32000, 15.0
0.35500, 11.0
0.39000, 10.0
0.42500, 19.0
0.46000, 25.0
0.49500, 33.0
0.53000, 52.0
0.56500, 53.0
0.60000, 39.0
0.63500, 32.0
0.67000, 32.0
0.70500, 35.0
0.74000, 40.0
0.77500, 45.0
0.81000, 38.0
0.84500, 44.0
0.88000, 45.0
0.91500, 45.0
0.95000, 56.0
0.98500, 49.0
1.02000, 51.0
1.05500, 58.0
1.09000, 58.0
1.12500, 57.0
1.16000, 43.0
1.19500, 49.0
1.23000, 51.0
1.26500, 48.0
1.30000, 52.0
1.33500, 54.0
1.37000, 44.0
1.40500, 42.0
1.44000, 54.0
1.47500, 48.0
1.51000, 43.0
1.54500, 50.0
1.58000, 41.0
1.61500, 41.0
1.65000, 73.0
1.68500, 174.0
1.72000, 321.0
1.75500, 390.0
1.79000, 208.0
1.82500, 83.0
1.86000, 53.0
1.89500, 39.0
1.93000, 35.0
1.96500, 42.0
2.00000, 47.0
2.03500, 62.0
2.07000, 48.0
2.10500, 54.0
2.14000, 42.0
2.17500, 65.0
2.21000, 172.0
2.24500, 567.0
2.28000, 1157.0
2.31500, 1476.0
2.35000, 1015.0
2.38500, 566.0
2.42000, 321.0
2.45500, 229.0
2.49000, 138.0
2.52500, 84.0
2.56000, 59.0
2.59500, 36.0
2.63000, 24.0
2.66500, 26.0
2.70000, 21.0
2.73500, 14.0
2.77000, 19.0
2.80500, 22.0
2.84000, 21.0
2.87500, 24.0
2.91000, 16.0
2.94500, 19.0
2.98000, 15.0
3.01500, 15.0
3.05000, 18.0
3.08500, 22.0
3.12000, 22.0
3.15500, 16.0
3.19000, 16.0
3.22500, 11.0
3.26000, 12.0
3.29500, 15.0
3.33000, 14.0
3.36500, 19.0
3.40000, 16.0
3.43500, 18.0
3.47000, 12.0
3.50500, 13.0
3.54000, 15.0
3.57500, 17.0
3.61000, 13.0
3.64500, 12.0
3.68000, 15.0
3.71500, 17.0
3.75000, 15.0
3.78500, 12.0
3.82000, 19.0
3.85500, 8.0
3.89000, 14.0
3.92500, 13.0
3.96000, 11.0
3.99500, 17.0
4.03000, 11.0
4.06500, 12.0
4.10000, 15.0
4.13500, 14.0
4.17000, 15.0
4.20500, 12.0
4.24000, 10.0
4.27500, 10.0
4.31000, 15.0
4.34500, 9.0
4.38000, 8.0
4.41500, 13.0
4.45000, 11.0
4.48500, 6.0
4.52000, 9.0
4.55500, 10.0
4.59000, 11.0
4.62500, 9.0
4.66000, 10.0
4.69500, 12.0
4.73000, 11.0
4.76500, 9.0
4.80000, 9.0
4.83500, 14.0
4.87000, 11.0
4.90500, 9.0
4.94000, 12.0
4.97500, 10.0
5.01000, 6.0
5.04500, 9.0
5.08000, 10.0
5.11500, 10.0
5.15000, 8.0
5.18500, 7.0
5.22000, 9.0
5.25500, 7.0
5.29000, 12.0
5.32500, 8.0
5.36000, 10.0
5.39500, 9.0
5.43000, 9.0
5.46500, 7.0
5.50000, 9.0
5.53500, 7.0
5.57000, 7.0
5.60500, 5.0
5.64000, 9.0
5.67500, 10.0
5.71000, 12.0
5.74500, 5.0
5.78000, 7.0
5.81500, 7.0
5.85000, 9.0
5.88500, 5.0
5.92000, 6.0
5.95500, 7.0
5.99000, 10.0
6.02500, 7.0
6.06000, 8.0
6.09500, 7.0
6.13000, 7.0
6.16500, 8.0
6.20000, 4.0
6.23500, 6.0
6.27000, 10.0
6.30500, 5.0
6.34000, 7.0
6.37500, 6.0
6.41000, 5.0
6.44500, 7.0
6.48000, 8.0
6.51500, 5.0
6.55000, 4.0
6.58500, 7.0
6.62000, 6.0
6.65500, 6.0
6.69000, 6.0
6.72500, 2.0
6.76000, 5.0
6.79500, 6.0
6.83000, 4.0
6.86500, 8.0
6.90000, 8.0
6.93500, 6.0
6.97000, 5.0
7.00500, 6.0
7.04000, 6.0
7.07500, 3.0
7.11000, 4.0
7.14500, 7.0
7.18000, 3.0
7.21500, 3.0
7.25000, 5.0
7.28500, 4.0
7.32000, 3.0
7.35500, 2.0
7.39000, 5.0
7.42500, 5.0
7.46000, 4.0
7.49500, 4.0
7.53000, 4.0
7.56500, 5.0
7.60000, 5.0
7.63500, 5.0
7.67000, 7.0
7.70500, 4.0
7.74000, 8.0
7.77500, 2.0
7.81000, 3.0
7.84500, 2.0
7.88000, 4.0
7.91500, 3.0
7.95000, 2.0
7.98500, 5.0
8.02000, 1.0
8.05500, 5.0
8.09000, 2.0
8.12500, 4.0
8.16000, 3.0
8.19500, 3.0
8.23000, 4.0
8.26500, 4.0
8.30000, 4.0
8.33500, 2.0
8.37000, 0.0
8.40500, 3.0
8.44000, 2.0
8.47500, 3.0
8.51000, 1.0
8.54500, 0.0
8.58000, 2.0
8.61500, 5.0
8.65000, 2.0
8.68500, 2.0
8.72000, 1.0
8.75500, 1.0
8.79000, 6.0
8.82500, 1.0
8.86000, 1.0
8.89500, 4.0
8.93000, 4.0
8.96500, 2.0
9.00000, 1.0
9.03500, 2.0
9.07000, 0.0
9.10500, 0.0
9.14000, 2.0
9.17500, 1.0
9.21000, 0.0
9.24500, 1.0
9.28000, 0.0
9.31500, 2.0
9.35000, 1.0
9.38500, 2.0
9.42000, 0.0
9.45500, 1.0
9.49000, 2.0
9.52500, 1.0
9.56000, 1.0
9.59500, 0.0
9.63000, 2.0
9.66500, 3.0
9.70000, 0.0
9.73500, 1.0
9.77000, 1.0
9.80500, 1.0
9.84000, 0.0
9.87500, 0.0
9.91000, 0.0
9.94500, 0.0
9.98000, 1.0
10.01500, 0.0
10.05000, 0.0
10.08500, 1.0
10.12000, 0.0
10.13500, 0.0
#ENDOFDATA   :

File: G15_10k_310724_1.txt
#FORMAT      : EMSA/MAS Spectral Data File
#VERSION     : 1.0
#TITLE       : G15_10k_310724_1
#DATE        : 30-JUL-2024
#TIME        : 10:30
#OWNER       :
#NPOINTS     : 2048.0
#NCOLUMNS    : 1.0
#XUNITS      : keV
#YUNITS      : counts
#DATATYPE    : XY
#XPERCHAN    : 0.005
#OFFSET      : -0.1
#SIGNALTYPE  : EDS
#CHOFFSET    : 20.0
#LIVETIME    : 60.0
#REALTIME    : 60.6473
#BEAMKV      : 10.0
#MAGCAM      : 2000.0
#XTILTSTGE   : 0.0
#AZIMANGLE   : 0.0
#ELEVANGLE   : 25.5
#XPOSITION mm: -3.0258
#YPOSITION mm: -0.4805
#ZPOSITION mm: 13.8600
##OXINSTPT   : 2
##OXINSTSTROB: 69.72
##OXINSTELEMS: 6,8,29,79,78,14
##OXINSTLABEL: 6, 0.277, C K?1_2
##OXINSTLABEL: 8, 0.525, O K?1
##OXINSTLABEL: 29, 8.048, Cu K?1
##OXINSTLABEL: 29, 8.905, Cu K?1
##OXINSTLABEL: 29, 0.930, Cu L?1,2
##OXINSTLABEL: 29, 0.832, Cu L?
##OXINSTLABEL: 29, 0.811, Cu Ll
##OXINSTLABEL: 79, 9.713, Au L?1
##OXINSTLABEL: 79, 8.494, Au Ll
##OXINSTLABEL: 79, 2.123, Au M?1
##OXINSTLABEL: 79, 2.410, Au M?
##OXINSTLABEL: 79, 1.648, Au M?2
##OXINSTLABEL: 79, 0.265, Au N4-N6
##OXINSTLABEL: 79, 0.251, Au N5-N6,7
##OXINSTLABEL: 78, 9.442, Pt L?1
##OXINSTLABEL: 78, 9.975, Pt L?
##OXINSTLABEL: 78, 8.268, Pt Ll
##OXINSTLABEL: 78, 2.050, Pt M?1
##OXINSTLABEL: 78, 2.331, Pt M?
##OXINSTLABEL: 78, 1.592, Pt M?2
##OXINSTLABEL: 78, 0.258, Pt N4-N6
##OXINSTLABEL: 78, 0.244, Pt N5-N6,7
##OXINSTLABEL: 14, 1.740, Si K?1
#SPECTRUM    : Spectral Data Starts Here
-0.10000, 0.0
-0.06500, 5.0
-0.03000, 117.0
0.00500, 673.0
0.04000, 1328.0
0.07500, 907.0
0.11000, 237.0
0.14500, 163.0
0.18000, 131.0
0.21500, 56.0
0.25000, 45.0
0.28500, 29.0
0.32000, 20.0
0.35500, 14.0
0.39000, 7.0
0.42500, 15.0
0.46000, 15.0
0.49500, 29.0
0.53000, 47.0
0.56500, 56.0
0.60000, 37.0
0.63500, 31.0
0.67000, 31.0
0.70500, 38.0
0.74000, 33.0
0.77500, 39.0
0.81000, 39.0
0.84500, 46.0
0.88000, 49.0
0.91500, 44.0
0.95000, 47.0
0.98500, 48.0
1.02000, 39.0
1.05500, 53.0
1.09000, 49.0
1.12500, 48.0
1.16000, 46.0
1.19500, 48.0
1.23000, 43.0
1.26500, 49.0
1.30000, 46.0
1.33500, 37.0
1.37000, 45.0
1.40500, 52.0
1.44000, 46.0
1.47500, 38.0
1.51000, 43.0
1.54500, 44.0
1.58000, 42.0
1.61500, 51.0
1.65000, 76.0
1.68500, 185.0
1.72000, 409.0
1.75500, 472.0
1.79000, 263.0
1.82500, 116.0
1.86000, 52.0
1.89500, 45.0
1.93000, 40.0
1.96500, 46.0
2.00000, 51.0
2.03500, 45.0
2.07000, 49.0
2.10500, 39.0
2.14000, 46.0
2.17500, 59.0
2.21000, 158.0
2.24500, 501.0
2.28000, 1054.0
2.31500, 1276.0
2.35000, 895.0
2.38500, 452.0
2.42000, 272.0
2.45500, 196.0
2.49000, 117.0
2.52500, 90.0
2.56000, 38.0
2.59500, 36.0
2.63000, 25.0
2.66500, 23.0
2.70000, 20.0
2.73500, 19.0
2.77000, 22.0
2.80500, 18.0
2.84000, 24.0
2.87500, 24.0
2.91000, 20.0
2.94500, 15.0
2.98000, 21.0
3.01500, 12.0
3.05000, 14.0
3.08500, 10.0
3.12000, 14.0
3.15500, 18.0
3.19000, 17.0
3.22500, 16.0
3.26000, 14.0
3.29500, 20.0
3.33000, 13.0
3.36500, 10.0
3.40000, 16.0
3.43500, 14.0
3.47000, 16.0
3.50500, 14.0
3.54000, 14.0
3.57500, 14.0
3.61000, 19.0
3.64500, 10.0
3.68000, 20.0
3.71500, 11.0
3.75000, 14.0
3.78500, 8.0
3.82000, 15.0
3.85500, 8.0
3.89000, 12.0
3.92500, 16.0
3.96000, 19.0
3.99500, 17.0
4.03000, 12.0
4.06500, 9.0
4.10000, 20.0
4.13500, 10.0
4.17000, 9.0
4.20500, 10.0
4.24000, 9.0
4.27500, 11.0
4.31000, 14.0
4.34500, 9.0
4.38000, 18.0
4.41500, 9.0
4.45000, 11.0
4.48500, 11.0
4.52000, 10.0
4.55500, 17.0
4.59000, 9.0
4.62500, 16.0
4.66000, 13.0
4.69500, 13.0
4.73000, 10.0
4.76500, 10.0
4.80000, 13.0
4.83500, 6.0
4.87000, 12.0
4.90500, 8.0
4.94000, 6.0
4.97500, 9.0
5.01000, 8.0
5.04500, 8.0
5.08000, 8.0
5.11500, 4.0
5.15000, 10.0
5.18500, 8.0
5.22000, 8.0
5.25500, 8.0
5.29000, 7.0
5.32500, 7.0
5.36000, 7.0
5.39500, 6.0
5.43000, 9.0
5.46500, 9.0
5.50000, 8.0
5.53500, 9.0
5.57000, 6.0
5.60500, 9.0
5.64000, 9.0
5.67500, 3.0
5.71000, 10.0
5.74500, 6.0
5.78000, 3.0
5.81500, 6.0
5.85000, 3.0
5.88500, 4.0
5.92000, 8.0
5.95500, 10.0
5.99000, 8.0
6.02500, 4.0
6.06000, 5.0
6.09500, 7.0
6.13000, 6.0
6.16500, 5.0
6.20000, 6.0
6.23500, 7.0
6.27000, 9.0
6.30500, 4.0
6.34000, 8.0
6.37500, 5.0
6.41000, 2.0
6.44500, 8.0
6.48000, 7.0
6.51500, 2.0
6.55000, 7.0
6.58500, 4.0
6.62000, 4.0
6.65500, 6.0
6.69000, 5.0
6.72500, 6.0
6.76000, 6.0
6.79500, 5.0
6.83000, 4.0
6.86500, 3.0
6.90000, 5.0
6.93500, 4.0
6.97000, 4.0
7.00500, 3.0
7.04000, 6.0
7.07500, 2.0
7.11000, 4.0
7.14500, 6.0
7.18000, 4.0
7.21500, 4.0
7.25000, 3.0
7.28500, 9.0
7.32000, 5.0
7.35500, 5.0
7.39000, 3.0
7.42500, 6.0
7.46000, 4.0
7.49500, 3.0
7.53000, 6.0
7.56500, 2.0
7.60000, 3.0
7.63500, 2.0
7.67000, 4.0
7.70500, 5.0
7.74000, 1.0
7.77500, 1.0
7.81000, 3.0
7.84500, 5.0
7.88000, 4.0
7.91500, 5.0
7.95000, 4.0
7.98500, 5.0
8.02000, 4.0
8.05500, 3.0
8.09000, 4.0
8.12500, 3.0
8.16000, 2.0
8.19500, 1.0
8.23000, 3.0
8.26500, 3.0
8.30000, 1.0
8.33500, 2.0
8.37000, 5.0
8.40500, 3.0
8.44000, 3.0
8.47500, 2.0
8.51000, 1.0
8.54500, 2.0
8.58000, 1.0
8.61500, 2.0
8.65000, 0.0
8.68500, 1.0
8.72000, 1.0
8.75500, 2.0
8.79000, 2.0
8.82500, 1.0
8.86000, 0.0
8.89500, 3.0
8.93000, 1.0
8.96500, 0.0
9.00000, 0.0
9.03500, 2.0
9.07000, 2.0
9.10500, 3.0
9.14000, 1.0
9.17500, 0.0
9.21000, 1.0
9.24500, 2.0
9.28000, 1.0
9.31500, 1.0
9.35000, 1.0
9.38500, 0.0
9.42000, 0.0
9.45500, 0.0
9.49000, 1.0
9.52500, 2.0
9.56000, 1.0
9.59500, 2.0
9.63000, 1.0
9.66500, 0.0
9.70000, 1.0
9.73500, 1.0
9.77000, 1.0
9.80500, 1.0
9.84000, 1.0
9.87500, 0.0
9.91000, 0.0
9.94500, 0.0
9.98000, 0.0
10.01500, 1.0
10.05000, 0.0
10.08500, 0.0
10.12000, 0.0
10.13500, 0.0
#ENDOFDATA   :

File: H9_10k_310724_5.txt
#FORMAT      : EMSA/MAS Spectral Data File
#VERSION     : 1.0
#TITLE       : H9_10k_310724_5
#DATE        : 30-JUL-2024
#TIME        : 10:07
#OWNER       :
#NPOINTS     : 2048.0
#NCOLUMNS    : 1.0
#XUNITS      : keV
#YUNITS      : counts
#DATATYPE    : XY
#XPERCHAN    : 0.005
#OFFSET      : -0.1
#SIGNALTYPE  : EDS
#CHOFFSET    : 20.0
#LIVETIME    : 60.043
#REALTIME    : 60.7089
#BEAMKV      : 10.0
#MAGCAM      : 3500.0
#XTILTSTGE   : 0.0
#AZIMANGLE   : 0.0
#ELEVANGLE   : 25.5
#XPOSITION mm: -0.1380
#YPOSITION mm: -0.1370
#ZPOSITION mm: 13.8527
##OXINSTPT   : 2
##OXINSTSTROB: 69.75
##OXINSTELEMS: 6,8,29,79,78,14
##OXINSTLABEL: 6, 0.277, C K?1_2
##OXINSTLABEL: 8, 0.525, O K?1
##OXINSTLABEL: 29, 8.048, Cu K?1
##OXINSTLABEL: 29, 8.905, Cu K?1
##OXINSTLABEL: 29, 0.930, Cu L?1,2
##OXINSTLABEL: 29, 0.832, Cu L?
##OXINSTLABEL: 29, 0.811, Cu Ll
##OXINSTLABEL: 79, 9.713, Au L?1
##OXINSTLABEL: 79, 8.494, Au Ll
##OXINSTLABEL: 79, 2.123, Au M?1
##OXINSTLABEL: 79, 2.410, Au M?
##OXINSTLABEL: 79, 1.648, Au M?2
##OXINSTLABEL: 79, 0.265, Au N4-N6
##OXINSTLABEL: 79, 0.251, Au N5-N6,7
##OXINSTLABEL: 78, 9.442, Pt L?1
##OXINSTLABEL: 78, 9.975, Pt L?
##OXINSTLABEL: 78, 8.268, Pt Ll
##OXINSTLABEL: 78, 2.050, Pt M?1
##OXINSTLABEL: 78, 2.331, Pt M?
##OXINSTLABEL: 78, 1.592, Pt M?2
##OXINSTLABEL: 78, 0.258, Pt N4-N6
##OXINSTLABEL: 78, 0.244, Pt N5-N6,7
##OXINSTLABEL: 14, 1.740, Si K?1
#SPECTRUM    : Spectral Data Starts Here
-0.10000, 0.0
-0.06500, 8.0
-0.03000, 112.0
0.00500, 678.0
0.04000, 1257.0
0.07500, 859.0
0.11000, 217.0
0.14500, 168.0
0.18000, 128.0
0.21500, 58.0
0.25000, 38.0
0.28500, 26.0
0.32000, 16.0
0.35500, 15.0
0.39000, 13.0
0.42500, 16.0
0.46000, 21.0
0.49500, 25.0
0.53000, 46.0
0.56500, 55.0
0.60000, 43.0
0.63500, 34.0
0.67000, 32.0
0.70500, 31.0
0.74000, 34.0
0.77500, 42.0
0.81000, 41.0
0.84500, 43.0
0.88000, 54.0
0.91500, 50.0
0.95000, 43.0
0.98500, 46.0
1.02000, 49.0
1.05500, 38.0
1.09000, 45.0
1.12500, 44.0
1.16000, 48.0
1.19500, 41.0
1.23000, 48.0
1.26500, 46.0
1.30000, 46.0
1.33500, 51.0
1.37000, 49.0
1.40500, 47.0
1.44000, 69.0
1.47500, 45.0
1.51000, 47.0
1.54500, 51.0
1.58000, 45.0
1.61500, 42.0
1.65000, 76.0
1.68500, 180.0
1.72000, 341.0
1.75500, 371.0
1.79000, 217.0
1.82500, 93.0
1.86000, 51.0
1.89500, 44.0
1.93000, 40.0
1.96500, 47.0
2.00000, 49.0
2.03500, 53.0
2.07000, 52.0
2.10500, 50.0
2.14000, 43.0
2.17500, 53.0
2.21000, 167.0
2.24500, 585.0
2.28000, 1145.0
2.31500, 1399.0
2.35000, 980.0
2.38500, 529.0
2.42000, 309.0
2.45500, 214.0
2.49000, 138.0
2.52500, 82.0
2.56000, 56.0
2.59500, 25.0
2.63000, 25.0
2.66500, 23.0
2.70000, 18.0
2.73500, 17.0
2.77000, 19.0
2.80500, 20.0
2.84000, 15.0
2.87500, 12.0
2.91000, 15.0
2.94500, 26.0
2.98000, 21.0
3.01500, 18.0
3.05000, 17.0
3.08500, 20.0
3.12000, 11.0
3.15500, 20.0
3.19000, 18.0
3.22500, 19.0
3.26000, 18.0
3.29500, 16.0
3.33000, 17.0
3.36500, 18.0
3.40000, 16.0
3.43500, 15.0
3.47000, 17.0
3.50500, 21.0
3.54000, 9.0
3.57500, 18.0
3.61000, 13.0
3.64500, 18.0
3.68000, 11.0
3.71500, 11.0
3.75000, 10.0
3.78500, 17.0
3.82000, 14.0
3.85500, 21.0
3.89000, 22.0
3.92500, 12.0
3.96000, 18.0
3.99500, 8.0
4.03000, 12.0
4.06500, 13.0
4.10000, 18.0
4.13500, 10.0
4.17000, 7.0
4.20500, 16.0
4.24000, 15.0
4.27500, 11.0
4.31000, 14.0
4.34500, 5.0
4.38000, 6.0
4.41500, 15.0
4.45000, 15.0
4.48500, 12.0
4.52000, 14.0
4.55500, 13.0
4.59000, 10.0
4.62500, 10.0
4.66000, 9.0
4.69500, 7.0
4.73000, 10.0
4.76500, 7.0
4.80000, 8.0
4.83500, 6.0
4.87000, 12.0
4.90500, 8.0
4.94000, 7.0
4.97500, 18.0
5.01000, 10.0
5.04500, 7.0
5.08000, 9.0
5.11500, 11.0
5.15000, 13.0
5.18500, 7.0
5.22000, 10.0
5.25500, 7.0
5.29000, 8.0
5.32500, 16.0
5.36000, 3.0
5.39500, 10.0
5.43000, 7.0
5.46500, 10.0
5.50000, 8.0
5.53500, 6.0
5.57000, 7.0
5.60500, 8.0
5.64000, 7.0
5.67500, 6.0
5.71000, 8.0
5.74500, 4.0
5.78000, 8.0
5.81500, 6.0
5.85000, 5.0
5.88500, 6.0
5.92000, 6.0
5.95500, 8.0
5.99000, 8.0
6.02500, 6.0
6.06000, 2.0
6.09500, 7.0
6.13000, 8.0
6.16500, 7.0
6.20000, 4.0
6.23500, 4.0
6.27000, 8.0
6.30500, 6.0
6.34000, 6.0
6.37500, 6.0
6.41000, 3.0
6.44500, 9.0
6.48000, 7.0
6.51500, 6.0
6.55000, 7.0
6.58500, 4.0
6.62000, 5.0
6.65500, 8.0
6.69000, 3.0
6.72500, 2.0
6.76000, 5.0
6.79500, 4.0
6.83000, 4.0
6.86500, 4.0
6.90000, 6.0
6.93500, 11.0
6.97000, 5.0
7.00500, 4.0
7.04000, 5.0
7.07500, 7.0
7.11000, 5.0
7.14500, 7.0
7.18000, 5.0
7.21500, 3.0
7.25000, 3.0
7.28500, 4.0
7.32000, 3.0
7.35500, 6.0
7.39000, 5.0
7.42500, 7.0
7.46000, 4.0
7.49500, 3.0
7.53000, 4.0
7.56500, 5.0
7.60000, 2.0
7.63500, 4.0
7.67000, 5.0
7.70500, 3.0
7.74000, 3.0
7.77500, 2.0
7.81000, 0.0
7.84500, 3.0
7.88000, 6.0
7.91500, 1.0
7.95000, 5.0
7.98500, 4.0
8.02000, 3.0
8.05500, 4.0
8.09000, 5.0
8.12500, 4.0
8.16000, 2.0
8.19500, 7.0
8.23000, 0.0
8.26500, 5.0
8.30000, 3.0
8.33500, 1.0
8.37000, 1.0
8.40500, 1.0
8.44000, 2.0
8.47500, 0.0
8.51000, 2.0
8.54500, 4.0
8.58000, 3.0
8.61500, 1.0
8.65000, 4.0
8.68500, 3.0
8.72000, 0.0
8.75500, 4.0
8.79000, 2.0
8.82500, 3.0
8.86000, 0.0
8.89500, 1.0
8.93000, 0.0
8.96500, 4.0
9.00000, 4.0
9.03500, 1.0
9.07000, 5.0
9.10500, 0.0
9.14000, 1.0
9.17500, 2.0
9.21000, 2.0
9.24500, 3.0
9.28000, 0.0
9.31500, 2.0
9.35000, 2.0
9.38500, 4.0
9.42000, 1.0
9.45500, 3.0
9.49000, 0.0
9.52500, 3.0
9.56000, 1.0
9.59500, 3.0
9.63000, 0.0
9.66500, 0.0
9.70000, 0.0
9.73500, 0.0
9.77000, 1.0
9.80500, 0.0
9.84000, 1.0
9.87500, 0.0
9.91000, 0.0
9.94500, 0.0
9.98000, 2.0
10.01500, 1.0
10.05000, 0.0
10.08500, 0.0
10.12000, 0.0
10.13500, 0.0
#ENDOFDATA   :