Folder: Sommarjobb-2024/Spectras 20250424 (part 5)

File: 20250425_10K_N10_area2_2.txt
#FORMAT      : EMSA/MAS Spectral Data File
#VERSION     : 1.0
#TITLE       : 20250425_10K_N10_area2_2
#DATE        : 24-APR-2025
#TIME        : 10:08
#OWNER       :
#NPOINTS     : 2048.0
#NCOLUMNS    : 1.0
#XUNITS      : keV
#YUNITS      : counts
#DATATYPE    : XY
#XPERCHAN    : 0.005
#OFFSET      : -0.1
#SIGNALTYPE  : EDS
#CHOFFSET    : 20.0
#LIVETIME    : 60.0222
#REALTIME    : 61.7726
#BEAMKV      : 10.0
#MAGCAM      : 1700.0
#XTILTSTGE   : 0.0
#AZIMANGLE   : 0.0
#ELEVANGLE   : 29.0
#XPOSITION mm: -0.7575
#YPOSITION mm: 0.5895
#ZPOSITION mm: 13.5530
##OXINSTPT   : 2
##OXINSTSTROB: 67.51
#SPECTRUM    : Spectral Data Starts Here
-0.10000, 0.0
-0.06500, 2.0
-0.03000, 65.0
0.00500, 453.0
0.04000, 1081.0
0.07500, 801.0
0.11000, 221.0
0.14500, 170.0
0.18000, 213.0
0.21500, 146.0
0.25000, 145.0
0.28500, 145.0
0.32000, 79.0
0.35500, 80.0
0.39000, 108.0
0.42500, 226.0
0.46000, 954.0
0.49500, 3257.0
0.53000, 4360.0
0.56500, 1944.0
0.60000, 390.0
0.63500, 123.0
0.67000, 123.0
0.70500, 113.0
0.74000, 142.0
0.77500, 145.0
0.81000, 175.0
0.84500, 149.0
0.88000, 198.0
0.91500, 183.0
0.95000, 176.0
0.98500, 174.0
1.02000, 192.0
1.05500, 210.0
1.09000, 184.0
1.12500, 174.0
1.16000, 192.0
1.19500, 196.0
1.23000, 212.0
1.26500, 201.0
1.30000, 192.0
1.33500, 194.0
1.37000, 205.0
1.40500, 220.0
1.44000, 215.0
1.47500, 207.0
1.51000, 208.0
1.54500, 222.0
1.58000, 230.0
1.61500, 310.0
1.65000, 1047.0
1.68500, 4695.0
1.72000, 10947.0
1.75500, 12179.0
1.79000, 6530.0
1.82500, 2061.0
1.86000, 722.0
1.89500, 314.0
1.93000, 134.0
1.96500, 113.0
2.00000, 118.0
2.03500, 111.0
2.07000, 97.0
2.10500, 107.0
2.14000, 85.0
2.17500, 106.0
2.21000, 161.0
2.24500, 417.0
2.28000, 806.0
2.31500, 962.0
2.35000, 652.0
2.38500, 375.0
2.42000, 240.0
2.45500, 218.0
2.49000, 178.0
2.52500, 119.0
2.56000, 96.0
2.59500, 99.0
2.63000, 73.0
2.66500, 73.0
2.70000, 72.0
2.73500, 73.0
2.77000, 58.0
2.80500, 91.0
2.84000, 78.0
2.87500, 73.0
2.91000, 76.0
2.94500, 53.0
2.98000, 67.0
3.01500, 61.0
3.05000, 58.0
3.08500, 73.0
3.12000, 57.0
3.15500, 54.0
3.19000, 62.0
3.22500, 61.0
3.26000, 56.0
3.29500, 59.0
3.33000, 53.0
3.36500, 64.0
3.40000, 65.0
3.43500, 70.0
3.47000, 61.0
3.50500, 74.0
3.54000, 67.0
3.57500, 56.0
3.61000, 55.0
3.64500, 43.0
3.68000, 48.0
3.71500, 44.0
3.75000, 49.0
3.78500, 50.0
3.82000, 39.0
3.85500, 53.0
3.89000, 41.0
3.92500, 57.0
3.96000, 43.0
3.99500, 54.0
4.03000, 43.0
4.06500, 47.0
4.10000, 40.0
4.13500, 36.0
4.17000, 29.0
4.20500, 41.0
4.24000, 46.0
4.27500, 47.0
4.31000, 45.0
4.34500, 46.0
4.38000, 36.0
4.41500, 41.0
4.45000, 41.0
4.48500, 36.0
4.52000, 39.0
4.55500, 43.0
4.59000, 42.0
4.62500, 27.0
4.66000, 39.0
4.69500, 41.0
4.73000, 24.0
4.76500, 36.0
4.80000, 26.0
4.83500, 29.0
4.87000, 40.0
4.90500, 36.0
4.94000, 23.0
4.97500, 35.0
5.01000, 41.0
5.04500, 25.0
5.08000, 33.0
5.11500, 36.0
5.15000, 30.0
5.18500, 17.0
5.22000, 46.0
5.25500, 25.0
5.29000, 25.0
5.32500, 24.0
5.36000, 20.0
5.39500, 25.0
5.43000, 24.0
5.46500, 32.0
5.50000, 17.0
5.53500, 31.0
5.57000, 22.0
5.60500, 35.0
5.64000, 26.0
5.67500, 22.0
5.71000, 18.0
5.74500, 26.0
5.78000, 14.0
5.81500, 25.0
5.85000, 27.0
5.88500, 20.0
5.92000, 23.0
5.95500, 19.0
5.99000, 24.0
6.02500, 18.0
6.06000, 19.0
6.09500, 19.0
6.13000, 15.0
6.16500, 22.0
6.20000, 18.0
6.23500, 20.0
6.27000, 22.0
6.30500, 19.0
6.34000, 16.0
6.37500, 15.0
6.41000, 13.0
6.44500, 10.0
6.48000, 20.0
6.51500, 21.0
6.55000, 12.0
6.58500, 18.0
6.62000, 14.0
6.65500, 12.0
6.69000, 8.0
6.72500, 15.0
6.76000, 19.0
6.79500, 17.0
6.83000, 11.0
6.86500, 11.0
6.90000, 11.0
6.93500, 10.0
6.97000, 16.0
7.00500, 14.0
7.04000, 16.0
7.07500, 20.0
7.11000, 9.0
7.14500, 15.0
7.18000, 11.0
7.21500, 18.0
7.25000, 12.0
7.28500, 8.0
7.32000, 14.0
7.35500, 16.0
7.39000, 10.0
7.42500, 7.0
7.46000, 7.0
7.49500, 7.0
7.53000, 8.0
7.56500, 11.0
7.60000, 12.0
7.63500, 9.0
7.67000, 6.0
7.70500, 7.0
7.74000, 3.0
7.77500, 8.0
7.81000, 16.0
7.84500, 17.0
7.88000, 8.0
7.91500, 7.0
7.95000, 4.0
7.98500, 6.0
8.02000, 7.0
8.05500, 8.0
8.09000, 9.0
8.12500, 14.0
8.16000, 4.0
8.19500, 7.0
8.23000, 4.0
8.26500, 6.0
8.30000, 12.0
8.33500, 10.0
8.37000, 8.0
8.40500, 7.0
8.44000, 5.0
8.47500, 2.0
8.51000, 3.0
8.54500, 6.0
8.58000, 6.0
8.61500, 3.0
8.65000, 3.0
8.68500, 2.0
8.72000, 3.0
8.75500, 4.0
8.79000, 6.0
8.82500, 11.0
8.86000, 6.0
8.89500, 4.0
8.93000, 2.0
8.96500, 4.0
9.00000, 3.0
9.03500, 2.0
9.07000, 4.0
9.10500, 1.0
9.14000, 5.0
9.17500, 3.0
9.21000, 3.0
9.24500, 2.0
9.28000, 2.0
9.31500, 1.0
9.35000, 5.0
9.38500, 3.0
9.42000, 3.0
9.45500, 3.0
9.49000, 2.0
9.52500, 3.0
9.56000, 3.0
9.59500, 3.0
9.63000, 1.0
9.66500, 5.0
9.70000, 2.0
9.73500, 1.0
9.77000, 4.0
9.80500, 1.0
9.84000, 2.0
9.87500, 3.0
9.91000, 0.0
9.94500, 1.0
9.98000, 2.0
10.01500, 0.0
10.05000, 0.0
10.08500, 0.0
10.12000, 0.0
10.13500, 0.0
#ENDOFDATA   :