Folder: Sommarjobb-2024/spectrums WS2 30keV

File: A11_30keV_300924_A1_1.txt
#FORMAT      : EMSA/MAS Spectral Data File
#VERSION     : 1.0
#TITLE       : A11_10keV_300924_A1_1
#DATE        : 30-SEP-2024
#TIME        : 15:13
#OWNER       :
#NPOINTS     : 2048.0
#NCOLUMNS    : 1.0
#XUNITS      : keV
#YUNITS      : counts
#DATATYPE    : XY
#XPERCHAN    : 0.02
#OFFSET      : -0.4
#SIGNALTYPE  : EDS
#CHOFFSET    : 20.0
#LIVETIME    : 60.0386
#REALTIME    : 74.621
#BEAMKV      : 30.0
#MAGCAM      : 16000.0
#XTILTSTGE   : 0.0
#AZIMANGLE   : 0.0
#ELEVANGLE   : 25.5
#XPOSITION mm: 2.4275
#YPOSITION mm: -0.8455
#ZPOSITION mm: 12.8688
##OXINSTPT   : 2
##OXINSTSTROB: 74.68
##OXINSTELEMS: 30,8,16
##OXINSTLABEL: 30, 8.639, Zn K?1
##OXINSTLABEL: 30, 9.572, Zn K?1
##OXINSTLABEL: 30, 1.012, Zn L?1,2
##OXINSTLABEL: 30, 0.906, Zn L?
##OXINSTLABEL: 30, 0.884, Zn Ll
##OXINSTLABEL: 8, 0.525, O K?1
##OXINSTLABEL: 16, 2.308, S K?1
##OXINSTLABEL: 16, 2.464, S K?1
#SPECTRUM    : Spectral Data Starts Here
-0.40000, 0.0
-0.26000, 0.0
-0.12000, 0.0
0.02000, 2304.0
0.16000, 612.0
0.30000, 748.0
0.44000, 1937.0
0.58000, 4355.0
0.72000, 705.0
0.86000, 1085.0
1.00000, 1532.0
1.14000, 2180.0
1.28000, 2669.0
1.42000, 3895.0
1.56000, 5648.0
1.70000, 340801.0
1.84000, 68570.0
1.98000, 797.0
2.12000, 713.0
2.26000, 2073.0
2.40000, 1171.0
2.54000, 884.0
2.68000, 875.0
2.82000, 991.0
2.96000, 1104.0
3.10000, 1107.0
3.24000, 1225.0
3.38000, 2574.0
3.52000, 9745.0
3.66000, 1394.0
3.80000, 1142.0
3.94000, 1150.0
4.08000, 1188.0
4.22000, 1146.0
4.36000, 1183.0
4.50000, 1133.0
4.64000, 1121.0
4.78000, 1109.0
4.92000, 1112.0
5.06000, 1165.0
5.20000, 1289.0
5.34000, 1107.0
5.48000, 1054.0
5.62000, 1039.0
5.76000, 1040.0
5.90000, 1016.0
6.04000, 945.0
6.18000, 957.0
6.32000, 919.0
6.46000, 904.0
6.60000, 858.0
6.74000, 871.0
6.88000, 856.0
7.02000, 847.0
7.16000, 817.0
7.30000, 800.0
7.44000, 875.0
7.58000, 765.0
7.72000, 748.0
7.86000, 731.0
8.00000, 699.0
8.14000, 694.0
8.28000, 844.0
8.42000, 1018.0
8.56000, 690.0
8.70000, 637.0
8.84000, 618.0
8.98000, 587.0
9.12000, 629.0
9.26000, 583.0
9.40000, 582.0
9.54000, 629.0
9.68000, 710.0
9.82000, 588.0
9.96000, 601.0
10.10000, 552.0
10.24000, 516.0
10.38000, 474.0
10.52000, 466.0
10.66000, 441.0
10.80000, 449.0
10.94000, 417.0
11.08000, 418.0
11.22000, 414.0
11.36000, 433.0
11.50000, 399.0
11.64000, 385.0
11.78000, 372.0
11.92000, 364.0
12.06000, 342.0
12.20000, 337.0
12.34000, 326.0
12.48000, 332.0
12.62000, 296.0
12.76000, 297.0
12.90000, 292.0
13.04000, 300.0
13.18000, 274.0
13.32000, 279.0
13.46000, 288.0
13.60000, 260.0
13.74000, 237.0
13.88000, 222.0
14.02000, 214.0
14.16000, 207.0
14.30000, 201.0
14.44000, 208.0
14.58000, 177.0
14.72000, 185.0
14.86000, 181.0
15.00000, 179.0
15.14000, 173.0
15.28000, 150.0
15.42000, 147.0
15.56000, 159.0
15.70000, 162.0
15.84000, 137.0
15.98000, 141.0
16.12000, 137.0
16.26000, 124.0
16.40000, 121.0
16.54000, 119.0
16.68000, 112.0
16.82000, 106.0
16.96000, 107.0
17.10000, 108.0
17.24000, 99.0
17.38000, 109.0
17.52000, 96.0
17.66000, 93.0
17.80000, 91.0
17.94000, 83.0
18.08000, 85.0
18.22000, 76.0
18.36000, 81.0
18.50000, 77.0
18.64000, 80.0
18.78000, 69.0
18.92000, 68.0
19.06000, 64.0
19.20000, 50.0
19.34000, 60.0
19.48000, 52.0
19.62000, 54.0
19.76000, 52.0
19.90000, 57.0
20.04000, 50.0
20.18000, 44.0
20.32000, 39.0
20.46000, 42.0
20.60000, 45.0
20.74000, 32.0
20.88000, 40.0
21.02000, 43.0
21.16000, 29.0
21.30000, 34.0
21.44000, 28.0
21.58000, 28.0
21.72000, 26.0
21.86000, 30.0
22.00000, 26.0
22.14000, 29.0
22.28000, 28.0
22.42000, 24.0
22.56000, 20.0
22.70000, 24.0
22.84000, 26.0
22.98000, 16.0
23.12000, 21.0
23.26000, 19.0
23.40000, 21.0
23.54000, 14.0
23.68000, 17.0
23.82000, 11.0
23.96000, 19.0
24.10000, 16.0
24.24000, 16.0
24.38000, 14.0
24.52000, 13.0
24.66000, 16.0
24.80000, 16.0
24.94000, 18.0
25.08000, 14.0
25.22000, 8.0
25.36000, 8.0
25.50000, 7.0
25.64000, 9.0
25.78000, 7.0
25.92000, 5.0
26.06000, 9.0
26.20000, 8.0
26.34000, 7.0
26.48000, 6.0
26.62000, 4.0
26.76000, 10.0
26.90000, 8.0
27.04000, 2.0
27.18000, 4.0
27.32000, 3.0
27.46000, 3.0
27.60000, 2.0
27.74000, 3.0
27.88000, 2.0
28.02000, 3.0
28.16000, 3.0
28.30000, 2.0
28.44000, 2.0
28.58000, 1.0
28.72000, 3.0
28.86000, 2.0
29.00000, 5.0
29.14000, 1.0
29.28000, 0.0
29.42000, 2.0
29.56000, 0.0
29.70000, 2.0
29.84000, 1.0
29.98000, 1.0
30.12000, 1.0
30.26000, 0.0
30.40000, 0.0
30.54000, 1.0
30.68000, 0.0
30.82000, 1.0
30.96000, 0.0
31.10000, 0.0
31.24000, 1.0
31.38000, 0.0
31.52000, 0.0
31.66000, 0.0
31.80000, 0.0
31.94000, 0.0
32.08000, 0.0
32.22000, 0.0
32.36000, 0.0
32.50000, 0.0
32.64000, 1.0
32.78000, 0.0
32.92000, 0.0
33.06000, 0.0
33.20000, 0.0
33.34000, 0.0
33.48000, 0.0
33.62000, 0.0
33.76000, 0.0
33.90000, 0.0
34.04000, 0.0
34.18000, 0.0
34.32000, 0.0
34.46000, 0.0
34.60000, 0.0
34.74000, 0.0
34.88000, 0.0
35.02000, 0.0
35.16000, 1.0
35.30000, 0.0
35.44000, 0.0
35.58000, 0.0
35.72000, 0.0
35.86000, 0.0
36.00000, 0.0
36.14000, 0.0
36.28000, 0.0
36.42000, 0.0
36.56000, 1.0
36.70000, 0.0
36.84000, 0.0
36.98000, 0.0
37.12000, 0.0
37.26000, 0.0
37.40000, 0.0
37.54000, 1.0
37.68000, 0.0
37.82000, 1.0
37.96000, 0.0
38.10000, 0.0
38.24000, 0.0
38.38000, 0.0
38.52000, 0.0
38.66000, 0.0
38.80000, 0.0
38.94000, 0.0
39.08000, 0.0
39.22000, 0.0
39.36000, 0.0
39.50000, 0.0
39.64000, 0.0
39.78000, 0.0
39.92000, 0.0
40.06000, 0.0
40.20000, 0.0
40.34000, 0.0
40.48000, 0.0
40.54000, 0.0
#ENDOFDATA   :

File: A11_30keV_300924_A1_2.txt
#FORMAT      : EMSA/MAS Spectral Data File
#VERSION     : 1.0
#TITLE       : A11_10keV_300924_A1_2
#DATE        : 30-SEP-2024
#TIME        : 15:14
#OWNER       :
#NPOINTS     : 2048.0
#NCOLUMNS    : 1.0
#XUNITS      : keV
#YUNITS      : counts
#DATATYPE    : XY
#XPERCHAN    : 0.02
#OFFSET      : -0.4
#SIGNALTYPE  : EDS
#CHOFFSET    : 20.0
#LIVETIME    : 60.0299
#REALTIME    : 74.6007
#BEAMKV      : 30.0
#MAGCAM      : 16000.0
#XTILTSTGE   : 0.0
#AZIMANGLE   : 0.0
#ELEVANGLE   : 25.5
#XPOSITION mm: 2.4275
#YPOSITION mm: -0.8455
#ZPOSITION mm: 12.8688
##OXINSTPT   : 2
##OXINSTSTROB: 74.78
##OXINSTELEMS: 30,8,16
##OXINSTLABEL: 30, 8.639, Zn K?1
##OXINSTLABEL: 30, 9.572, Zn K?1
##OXINSTLABEL: 30, 1.012, Zn L?1,2
##OXINSTLABEL: 30, 0.906, Zn L?
##OXINSTLABEL: 30, 0.884, Zn Ll
##OXINSTLABEL: 8, 0.525, O K?1
##OXINSTLABEL: 16, 2.308, S K?1
##OXINSTLABEL: 16, 2.464, S K?1
#SPECTRUM    : Spectral Data Starts Here
-0.40000, 0.0
-0.26000, 0.0
-0.12000, 0.0
0.02000, 2313.0
0.16000, 592.0
0.30000, 799.0
0.44000, 1845.0
0.58000, 4455.0
0.72000, 682.0
0.86000, 1096.0
1.00000, 1604.0
1.14000, 2114.0
1.28000, 2751.0
1.42000, 3812.0
1.56000, 5653.0
1.70000, 339147.0
1.84000, 69132.0
1.98000, 843.0
2.12000, 695.0
2.26000, 2065.0
2.40000, 1162.0
2.54000, 834.0
2.68000, 881.0
2.82000, 963.0
2.96000, 1044.0
3.10000, 1135.0
3.24000, 1226.0
3.38000, 2524.0
3.52000, 9628.0
3.66000, 1451.0
3.80000, 1121.0
3.94000, 1136.0
4.08000, 1241.0
4.22000, 1152.0
4.36000, 1126.0
4.50000, 1132.0
4.64000, 1091.0
4.78000, 1112.0
4.92000, 1114.0
5.06000, 1125.0
5.20000, 1258.0
5.34000, 1108.0
5.48000, 1044.0
5.62000, 1002.0
5.76000, 988.0
5.90000, 950.0
6.04000, 947.0
6.18000, 942.0
6.32000, 916.0
6.46000, 936.0
6.60000, 872.0
6.74000, 865.0
6.88000, 835.0
7.02000, 808.0
7.16000, 824.0
7.30000, 815.0
7.44000, 807.0
7.58000, 753.0
7.72000, 762.0
7.86000, 726.0
8.00000, 725.0
8.14000, 709.0
8.28000, 782.0
8.42000, 1026.0
8.56000, 683.0
8.70000, 630.0
8.84000, 629.0
8.98000, 596.0
9.12000, 584.0
9.26000, 602.0
9.40000, 584.0
9.54000, 593.0
9.68000, 729.0
9.82000, 583.0
9.96000, 589.0
10.10000, 534.0
10.24000, 516.0
10.38000, 468.0
10.52000, 480.0
10.66000, 465.0
10.80000, 440.0
10.94000, 448.0
11.08000, 400.0
11.22000, 417.0
11.36000, 410.0
11.50000, 387.0
11.64000, 368.0
11.78000, 366.0
11.92000, 376.0
12.06000, 349.0
12.20000, 326.0
12.34000, 319.0
12.48000, 301.0
12.62000, 302.0
12.76000, 296.0
12.90000, 290.0
13.04000, 273.0
13.18000, 251.0
13.32000, 250.0
13.46000, 255.0
13.60000, 235.0
13.74000, 247.0
13.88000, 221.0
14.02000, 221.0
14.16000, 233.0
14.30000, 224.0
14.44000, 188.0
14.58000, 192.0
14.72000, 200.0
14.86000, 180.0
15.00000, 179.0
15.14000, 182.0
15.28000, 148.0
15.42000, 140.0
15.56000, 152.0
15.70000, 160.0
15.84000, 151.0
15.98000, 137.0
16.12000, 128.0
16.26000, 132.0
16.40000, 121.0
16.54000, 122.0
16.68000, 121.0
16.82000, 102.0
16.96000, 102.0
17.10000, 114.0
17.24000, 96.0
17.38000, 101.0
17.52000, 87.0
17.66000, 102.0
17.80000, 83.0
17.94000, 89.0
18.08000, 85.0
18.22000, 82.0
18.36000, 74.0
18.50000, 67.0
18.64000, 68.0
18.78000, 77.0
18.92000, 67.0
19.06000, 58.0
19.20000, 72.0
19.34000, 59.0
19.48000, 57.0
19.62000, 62.0
19.76000, 44.0
19.90000, 46.0
20.04000, 52.0
20.18000, 50.0
20.32000, 49.0
20.46000, 37.0
20.60000, 40.0
20.74000, 43.0
20.88000, 34.0
21.02000, 37.0
21.16000, 39.0
21.30000, 34.0
21.44000, 39.0
21.58000, 34.0
21.72000, 38.0
21.86000, 29.0
22.00000, 34.0
22.14000, 30.0
22.28000, 29.0
22.42000, 23.0
22.56000, 27.0
22.70000, 23.0
22.84000, 23.0
22.98000, 24.0
23.12000, 21.0
23.26000, 19.0
23.40000, 18.0
23.54000, 12.0
23.68000, 15.0
23.82000, 18.0
23.96000, 15.0
24.10000, 19.0
24.24000, 19.0
24.38000, 16.0
24.52000, 14.0
24.66000, 12.0
24.80000, 11.0
24.94000, 12.0
25.08000, 14.0
25.22000, 4.0
25.36000, 11.0
25.50000, 9.0
25.64000, 6.0
25.78000, 6.0
25.92000, 8.0
26.06000, 13.0
26.20000, 8.0
26.34000, 6.0
26.48000, 4.0
26.62000, 6.0
26.76000, 6.0
26.90000, 4.0
27.04000, 5.0
27.18000, 3.0
27.32000, 4.0
27.46000, 3.0
27.60000, 3.0
27.74000, 3.0
27.88000, 4.0
28.02000, 3.0
28.16000, 3.0
28.30000, 1.0
28.44000, 4.0
28.58000, 2.0
28.72000, 1.0
28.86000, 4.0
29.00000, 4.0
29.14000, 1.0
29.28000, 0.0
29.42000, 2.0
29.56000, 1.0
29.70000, 1.0
29.84000, 2.0
29.98000, 0.0
30.12000, 1.0
30.26000, 0.0
30.40000, 0.0
30.54000, 0.0
30.68000, 0.0
30.82000, 0.0
30.96000, 0.0
31.10000, 0.0
31.24000, 0.0
31.38000, 0.0
31.52000, 0.0
31.66000, 1.0
31.80000, 0.0
31.94000, 0.0
32.08000, 0.0
32.22000, 0.0
32.36000, 0.0
32.50000, 0.0
32.64000, 0.0
32.78000, 1.0
32.92000, 0.0
33.06000, 0.0
33.20000, 0.0
33.34000, 0.0
33.48000, 0.0
33.62000, 0.0
33.76000, 0.0
33.90000, 0.0
34.04000, 0.0
34.18000, 0.0
34.32000, 0.0
34.46000, 0.0
34.60000, 0.0
34.74000, 0.0
34.88000, 0.0
35.02000, 0.0
35.16000, 0.0
35.30000, 0.0
35.44000, 0.0
35.58000, 0.0
35.72000, 0.0
35.86000, 0.0
36.00000, 0.0
36.14000, 0.0
36.28000, 0.0
36.42000, 0.0
36.56000, 0.0
36.70000, 0.0
36.84000, 0.0
36.98000, 0.0
37.12000, 0.0
37.26000, 0.0
37.40000, 0.0
37.54000, 0.0
37.68000, 0.0
37.82000, 0.0
37.96000, 0.0
38.10000, 0.0
38.24000, 0.0
38.38000, 0.0
38.52000, 0.0
38.66000, 0.0
38.80000, 0.0
38.94000, 0.0
39.08000, 0.0
39.22000, 0.0
39.36000, 0.0
39.50000, 0.0
39.64000, 0.0
39.78000, 0.0
39.92000, 0.0
40.06000, 0.0
40.20000, 0.0
40.34000, 0.0
40.48000, 0.0
40.54000, 0.0
#ENDOFDATA   :

File: A11_30keV_300924_A1_3.txt
#FORMAT      : EMSA/MAS Spectral Data File
#VERSION     : 1.0
#TITLE       : A11_10keV_300924_A1_3
#DATE        : 30-SEP-2024
#TIME        : 15:15
#OWNER       :
#NPOINTS     : 2048.0
#NCOLUMNS    : 1.0
#XUNITS      : keV
#YUNITS      : counts
#DATATYPE    : XY
#XPERCHAN    : 0.02
#OFFSET      : -0.4
#SIGNALTYPE  : EDS
#CHOFFSET    : 20.0
#LIVETIME    : 60.013
#REALTIME    : 74.5657
#BEAMKV      : 30.0
#MAGCAM      : 16000.0
#XTILTSTGE   : 0.0
#AZIMANGLE   : 0.0
#ELEVANGLE   : 25.5
#XPOSITION mm: 2.4275
#YPOSITION mm: -0.8455
#ZPOSITION mm: 12.8688
##OXINSTPT   : 2
##OXINSTSTROB: 74.72
##OXINSTELEMS: 30,8,16
##OXINSTLABEL: 30, 8.639, Zn K?1
##OXINSTLABEL: 30, 9.572, Zn K?1
##OXINSTLABEL: 30, 1.012, Zn L?1,2
##OXINSTLABEL: 30, 0.906, Zn L?
##OXINSTLABEL: 30, 0.884, Zn Ll
##OXINSTLABEL: 8, 0.525, O K?1
##OXINSTLABEL: 16, 2.308, S K?1
##OXINSTLABEL: 16, 2.464, S K?1
#SPECTRUM    : Spectral Data Starts Here
-0.40000, 0.0
-0.26000, 0.0
-0.12000, 0.0
0.02000, 2326.0
0.16000, 618.0
0.30000, 761.0
0.44000, 1927.0
0.58000, 4291.0
0.72000, 703.0
0.86000, 1098.0
1.00000, 1604.0
1.14000, 2156.0
1.28000, 2746.0
1.42000, 3794.0
1.56000, 5610.0
1.70000, 341047.0
1.84000, 68589.0
1.98000, 818.0
2.12000, 685.0
2.26000, 2065.0
2.40000, 1134.0
2.54000, 840.0
2.68000, 909.0
2.82000, 982.0
2.96000, 1050.0
3.10000, 1132.0
3.24000, 1249.0
3.38000, 2492.0
3.52000, 9761.0
3.66000, 1440.0
3.80000, 1105.0
3.94000, 1152.0
4.08000, 1184.0
4.22000, 1132.0
4.36000, 1128.0
4.50000, 1151.0
4.64000, 1132.0
4.78000, 1121.0
4.92000, 1127.0
5.06000, 1121.0
5.20000, 1272.0
5.34000, 1090.0
5.48000, 1035.0
5.62000, 1058.0
5.76000, 1004.0
5.90000, 1000.0
6.04000, 961.0
6.18000, 942.0
6.32000, 908.0
6.46000, 907.0
6.60000, 848.0
6.74000, 855.0
6.88000, 856.0
7.02000, 876.0
7.16000, 834.0
7.30000, 815.0
7.44000, 829.0
7.58000, 763.0
7.72000, 743.0
7.86000, 728.0
8.00000, 719.0
8.14000, 697.0
8.28000, 795.0
8.42000, 1057.0
8.56000, 695.0
8.70000, 608.0
8.84000, 624.0
8.98000, 608.0
9.12000, 623.0
9.26000, 569.0
9.40000, 557.0
9.54000, 594.0
9.68000, 713.0
9.82000, 603.0
9.96000, 575.0
10.10000, 541.0
10.24000, 482.0
10.38000, 471.0
10.52000, 453.0
10.66000, 465.0
10.80000, 426.0
10.94000, 430.0
11.08000, 427.0
11.22000, 410.0
11.36000, 401.0
11.50000, 412.0
11.64000, 410.0
11.78000, 364.0
11.92000, 349.0
12.06000, 344.0
12.20000, 327.0
12.34000, 317.0
12.48000, 310.0
12.62000, 315.0
12.76000, 284.0
12.90000, 260.0
13.04000, 289.0
13.18000, 277.0
13.32000, 255.0
13.46000, 270.0
13.60000, 241.0
13.74000, 242.0
13.88000, 212.0
14.02000, 230.0
14.16000, 199.0
14.30000, 214.0
14.44000, 194.0
14.58000, 194.0
14.72000, 181.0
14.86000, 193.0
15.00000, 169.0
15.14000, 174.0
15.28000, 162.0
15.42000, 159.0
15.56000, 174.0
15.70000, 147.0
15.84000, 147.0
15.98000, 134.0
16.12000, 133.0
16.26000, 140.0
16.40000, 121.0
16.54000, 95.0
16.68000, 118.0
16.82000, 111.0
16.96000, 98.0
17.10000, 109.0
17.24000, 89.0
17.38000, 119.0
17.52000, 102.0
17.66000, 93.0
17.80000, 95.0
17.94000, 75.0
18.08000, 84.0
18.22000, 82.0
18.36000, 78.0
18.50000, 71.0
18.64000, 74.0
18.78000, 66.0
18.92000, 65.0
19.06000, 71.0
19.20000, 52.0
19.34000, 62.0
19.48000, 49.0
19.62000, 61.0
19.76000, 51.0
19.90000, 47.0
20.04000, 51.0
20.18000, 40.0
20.32000, 37.0
20.46000, 45.0
20.60000, 42.0
20.74000, 36.0
20.88000, 38.0
21.02000, 34.0
21.16000, 45.0
21.30000, 35.0
21.44000, 39.0
21.58000, 30.0
21.72000, 32.0
21.86000, 24.0
22.00000, 29.0
22.14000, 26.0
22.28000, 29.0
22.42000, 33.0
22.56000, 19.0
22.70000, 29.0
22.84000, 17.0
22.98000, 19.0
23.12000, 23.0
23.26000, 18.0
23.40000, 17.0
23.54000, 17.0
23.68000, 15.0
23.82000, 17.0
23.96000, 15.0
24.10000, 14.0
24.24000, 18.0
24.38000, 10.0
24.52000, 17.0
24.66000, 11.0
24.80000, 8.0
24.94000, 14.0
25.08000, 13.0
25.22000, 7.0
25.36000, 11.0
25.50000, 8.0
25.64000, 5.0
25.78000, 11.0
25.92000, 5.0
26.06000, 9.0
26.20000, 7.0
26.34000, 4.0
26.48000, 5.0
26.62000, 4.0
26.76000, 6.0
26.90000, 5.0
27.04000, 2.0
27.18000, 5.0
27.32000, 6.0
27.46000, 3.0
27.60000, 3.0
27.74000, 2.0
27.88000, 5.0
28.02000, 3.0
28.16000, 4.0
28.30000, 2.0
28.44000, 2.0
28.58000, 3.0
28.72000, 2.0
28.86000, 2.0
29.00000, 0.0
29.14000, 1.0
29.28000, 1.0
29.42000, 2.0
29.56000, 0.0
29.70000, 1.0
29.84000, 1.0
29.98000, 0.0
30.12000, 0.0
30.26000, 0.0
30.40000, 1.0
30.54000, 1.0
30.68000, 1.0
30.82000, 0.0
30.96000, 1.0
31.10000, 1.0
31.24000, 1.0
31.38000, 0.0
31.52000, 0.0
31.66000, 1.0
31.80000, 1.0
31.94000, 0.0
32.08000, 0.0
32.22000, 0.0
32.36000, 1.0
32.50000, 0.0
32.64000, 0.0
32.78000, 0.0
32.92000, 0.0
33.06000, 0.0
33.20000, 0.0
33.34000, 0.0
33.48000, 0.0
33.62000, 0.0
33.76000, 0.0
33.90000, 0.0
34.04000, 0.0
34.18000, 0.0
34.32000, 0.0
34.46000, 0.0
34.60000, 0.0
34.74000, 0.0
34.88000, 0.0
35.02000, 0.0
35.16000, 0.0
35.30000, 0.0
35.44000, 0.0
35.58000, 0.0
35.72000, 0.0
35.86000, 0.0
36.00000, 0.0
36.14000, 0.0
36.28000, 0.0
36.42000, 0.0
36.56000, 0.0
36.70000, 0.0
36.84000, 0.0
36.98000, 0.0
37.12000, 0.0
37.26000, 0.0
37.40000, 0.0
37.54000, 1.0
37.68000, 0.0
37.82000, 0.0
37.96000, 0.0
38.10000, 0.0
38.24000, 0.0
38.38000, 0.0
38.52000, 0.0
38.66000, 0.0
38.80000, 0.0
38.94000, 0.0
39.08000, 0.0
39.22000, 0.0
39.36000, 0.0
39.50000, 0.0
39.64000, 1.0
39.78000, 0.0
39.92000, 0.0
40.06000, 0.0
40.20000, 0.0
40.34000, 0.0
40.48000, 0.0
40.54000, 0.0
#ENDOFDATA   :

File: A11_30keV_300924_A2_2.txt
#FORMAT      : EMSA/MAS Spectral Data File
#VERSION     : 1.0
#TITLE       : A11_10keV_300924_A2_2
#DATE        : 30-SEP-2024
#TIME        : 15:19
#OWNER       :
#NPOINTS     : 2048.0
#NCOLUMNS    : 1.0
#XUNITS      : keV
#YUNITS      : counts
#DATATYPE    : XY
#XPERCHAN    : 0.02
#OFFSET      : -0.4
#SIGNALTYPE  : EDS
#CHOFFSET    : 20.0
#LIVETIME    : 60.1419
#REALTIME    : 74.7095
#BEAMKV      : 30.0
#MAGCAM      : 16000.0
#XTILTSTGE   : 0.0
#AZIMANGLE   : 0.0
#ELEVANGLE   : 25.5
#XPOSITION mm: 2.4258
#YPOSITION mm: -0.8530
#ZPOSITION mm: 12.8688
##OXINSTPT   : 2
##OXINSTSTROB: 74.68
##OXINSTELEMS: 30,8,16
##OXINSTLABEL: 30, 8.639, Zn K?1
##OXINSTLABEL: 30, 9.572, Zn K?1
##OXINSTLABEL: 30, 1.012, Zn L?1,2
##OXINSTLABEL: 30, 0.906, Zn L?
##OXINSTLABEL: 30, 0.884, Zn Ll
##OXINSTLABEL: 8, 0.525, O K?1
##OXINSTLABEL: 16, 2.308, S K?1
##OXINSTLABEL: 16, 2.464, S K?1
#SPECTRUM    : Spectral Data Starts Here
-0.40000, 0.0
-0.26000, 0.0
-0.12000, 0.0
0.02000, 2308.0
0.16000, 674.0
0.30000, 876.0
0.44000, 1598.0
0.58000, 3733.0
0.72000, 754.0
0.86000, 1176.0
1.00000, 1644.0
1.14000, 2194.0
1.28000, 2824.0
1.42000, 4054.0
1.56000, 5724.0
1.70000, 337546.0
1.84000, 68876.0
1.98000, 919.0
2.12000, 754.0
2.26000, 2757.0
2.40000, 1523.0
2.54000, 978.0
2.68000, 943.0
2.82000, 996.0
2.96000, 1111.0
3.10000, 1219.0
3.24000, 1260.0
3.38000, 2571.0
3.52000, 9578.0
3.66000, 1445.0
3.80000, 1187.0
3.94000, 1199.0
4.08000, 1231.0
4.22000, 1160.0
4.36000, 1201.0
4.50000, 1144.0
4.64000, 1166.0
4.78000, 1140.0
4.92000, 1094.0
5.06000, 1159.0
5.20000, 1280.0
5.34000, 1160.0
5.48000, 1061.0
5.62000, 1040.0
5.76000, 1050.0
5.90000, 1007.0
6.04000, 964.0
6.18000, 940.0
6.32000, 948.0
6.46000, 942.0
6.60000, 887.0
6.74000, 898.0
6.88000, 870.0
7.02000, 876.0
7.16000, 845.0
7.30000, 850.0
7.44000, 782.0
7.58000, 743.0
7.72000, 727.0
7.86000, 707.0
8.00000, 750.0
8.14000, 713.0
8.28000, 945.0
8.42000, 1367.0
8.56000, 701.0
8.70000, 665.0
8.84000, 611.0
8.98000, 635.0
9.12000, 600.0
9.26000, 570.0
9.40000, 615.0
9.54000, 677.0
9.68000, 837.0
9.82000, 644.0
9.96000, 664.0
10.10000, 554.0
10.24000, 506.0
10.38000, 481.0
10.52000, 497.0
10.66000, 439.0
10.80000, 441.0
10.94000, 432.0
11.08000, 404.0
11.22000, 466.0
11.36000, 445.0
11.50000, 430.0
11.64000, 396.0
11.78000, 390.0
11.92000, 369.0
12.06000, 353.0
12.20000, 347.0
12.34000, 352.0
12.48000, 328.0
12.62000, 303.0
12.76000, 328.0
12.90000, 308.0
13.04000, 270.0
13.18000, 282.0
13.32000, 269.0
13.46000, 275.0
13.60000, 240.0
13.74000, 244.0
13.88000, 256.0
14.02000, 232.0
14.16000, 220.0
14.30000, 209.0
14.44000, 207.0
14.58000, 196.0
14.72000, 190.0
14.86000, 179.0
15.00000, 197.0
15.14000, 182.0
15.28000, 170.0
15.42000, 169.0
15.56000, 179.0
15.70000, 160.0
15.84000, 148.0
15.98000, 146.0
16.12000, 148.0
16.26000, 130.0
16.40000, 127.0
16.54000, 126.0
16.68000, 124.0
16.82000, 109.0
16.96000, 110.0
17.10000, 103.0
17.24000, 109.0
17.38000, 102.0
17.52000, 95.0
17.66000, 81.0
17.80000, 91.0
17.94000, 85.0
18.08000, 76.0
18.22000, 76.0
18.36000, 73.0
18.50000, 72.0
18.64000, 79.0
18.78000, 64.0
18.92000, 64.0
19.06000, 70.0
19.20000, 55.0
19.34000, 67.0
19.48000, 61.0
19.62000, 61.0
19.76000, 57.0
19.90000, 50.0
20.04000, 48.0
20.18000, 53.0
20.32000, 44.0
20.46000, 50.0
20.60000, 37.0
20.74000, 39.0
20.88000, 39.0
21.02000, 39.0
21.16000, 40.0
21.30000, 38.0
21.44000, 30.0
21.58000, 25.0
21.72000, 31.0
21.86000, 34.0
22.00000, 34.0
22.14000, 27.0
22.28000, 27.0
22.42000, 30.0
22.56000, 29.0
22.70000, 32.0
22.84000, 26.0
22.98000, 22.0
23.12000, 20.0
23.26000, 22.0
23.40000, 19.0
23.54000, 19.0
23.68000, 19.0
23.82000, 11.0
23.96000, 18.0
24.10000, 12.0
24.24000, 18.0
24.38000, 13.0
24.52000, 13.0
24.66000, 10.0
24.80000, 15.0
24.94000, 8.0
25.08000, 11.0
25.22000, 11.0
25.36000, 9.0
25.50000, 11.0
25.64000, 8.0
25.78000, 9.0
25.92000, 9.0
26.06000, 11.0
26.20000, 5.0
26.34000, 7.0
26.48000, 4.0
26.62000, 7.0
26.76000, 5.0
26.90000, 7.0
27.04000, 4.0
27.18000, 7.0
27.32000, 6.0
27.46000, 6.0
27.60000, 6.0
27.74000, 5.0
27.88000, 2.0
28.02000, 5.0
28.16000, 4.0
28.30000, 2.0
28.44000, 2.0
28.58000, 1.0
28.72000, 2.0
28.86000, 1.0
29.00000, 3.0
29.14000, 2.0
29.28000, 2.0
29.42000, 2.0
29.56000, 0.0
29.70000, 2.0
29.84000, 3.0
29.98000, 0.0
30.12000, 0.0
30.26000, 0.0
30.40000, 0.0
30.54000, 0.0
30.68000, 0.0
30.82000, 1.0
30.96000, 1.0
31.10000, 0.0
31.24000, 0.0
31.38000, 0.0
31.52000, 0.0
31.66000, 0.0
31.80000, 0.0
31.94000, 0.0
32.08000, 0.0
32.22000, 0.0
32.36000, 0.0
32.50000, 0.0
32.64000, 0.0
32.78000, 0.0
32.92000, 0.0
33.06000, 0.0
33.20000, 0.0
33.34000, 0.0
33.48000, 0.0
33.62000, 0.0
33.76000, 0.0
33.90000, 0.0
34.04000, 1.0
34.18000, 0.0
34.32000, 0.0
34.46000, 0.0
34.60000, 0.0
34.74000, 0.0
34.88000, 0.0
35.02000, 0.0
35.16000, 0.0
35.30000, 0.0
35.44000, 1.0
35.58000, 0.0
35.72000, 0.0
35.86000, 0.0
36.00000, 0.0
36.14000, 0.0
36.28000, 0.0
36.42000, 0.0
36.56000, 0.0
36.70000, 0.0
36.84000, 0.0
36.98000, 0.0
37.12000, 0.0
37.26000, 0.0
37.40000, 0.0
37.54000, 0.0
37.68000, 0.0
37.82000, 0.0
37.96000, 0.0
38.10000, 0.0
38.24000, 0.0
38.38000, 0.0
38.52000, 0.0
38.66000, 0.0
38.80000, 0.0
38.94000, 0.0
39.08000, 0.0
39.22000, 0.0
39.36000, 0.0
39.50000, 0.0
39.64000, 0.0
39.78000, 0.0
39.92000, 0.0
40.06000, 0.0
40.20000, 0.0
40.34000, 0.0
40.48000, 0.0
40.54000, 0.0
#ENDOFDATA   :