Folder: Sommarjobb-2024/Spectrums Substarte test 2

File: B4_Area2_110924_1.txt
#FORMAT      : EMSA/MAS Spectral Data File
#VERSION     : 1.0
#TITLE       : B4_Area2_110924_1
#DATE        : 11-SEP-2024
#TIME        : 10:39
#OWNER       :
#NPOINTS     : 2048.0
#NCOLUMNS    : 1.0
#XUNITS      : keV
#YUNITS      : counts
#DATATYPE    : XY
#XPERCHAN    : 0.005
#OFFSET      : -0.1
#SIGNALTYPE  : EDS
#CHOFFSET    : 20.0
#LIVETIME    : 60.0
#REALTIME    : 60.6707
#BEAMKV      : 10.0
#MAGCAM      : 5000.0
#XTILTSTGE   : 0.0
#AZIMANGLE   : 0.0
#ELEVANGLE   : 25.5
#XPOSITION mm: 1.5360
#YPOSITION mm: 1.0560
#ZPOSITION mm: 13.5296
##OXINSTPT   : 2
##OXINSTSTROB: 69.65
##OXINSTELEMS: 8,16,14,6,42,7
##OXINSTLABEL: 8, 0.525, O K?1
##OXINSTLABEL: 16, 2.308, S K?1
##OXINSTLABEL: 16, 2.464, S K?1
##OXINSTLABEL: 14, 1.740, Si K?1
##OXINSTLABEL: 6, 0.277, C K?1_2
##OXINSTLABEL: 42, 0.193, Mo M?
##OXINSTLABEL: 42, 2.016, Mo Ll
##OXINSTLABEL: 42, 2.120, Mo L?
##OXINSTLABEL: 42, 2.293, Mo L?1
##OXINSTLABEL: 42, 2.395, Mo L?1
##OXINSTLABEL: 42, 2.518, Mo L?2,15
##OXINSTLABEL: 42, 2.624, Mo L?1
##OXINSTLABEL: 42, 2.831, Mo L?2,3
##OXINSTLABEL: 7, 0.392, N K?1_2
#SPECTRUM    : Spectral Data Starts Here
-0.10000, 0.0
-0.06500, 6.0
-0.03000, 106.0
0.00500, 672.0
0.04000, 1359.0
0.07500, 884.0
0.11000, 215.0
0.14500, 95.0
0.18000, 74.0
0.21500, 51.0
0.25000, 39.0
0.28500, 26.0
0.32000, 27.0
0.35500, 22.0
0.39000, 36.0
0.42500, 28.0
0.46000, 22.0
0.49500, 24.0
0.53000, 26.0
0.56500, 32.0
0.60000, 31.0
0.63500, 31.0
0.67000, 28.0
0.70500, 32.0
0.74000, 32.0
0.77500, 38.0
0.81000, 32.0
0.84500, 49.0
0.88000, 44.0
0.91500, 31.0
0.95000, 38.0
0.98500, 45.0
1.02000, 36.0
1.05500, 38.0
1.09000, 46.0
1.12500, 44.0
1.16000, 41.0
1.19500, 35.0
1.23000, 47.0
1.26500, 50.0
1.30000, 47.0
1.33500, 37.0
1.37000, 42.0
1.40500, 40.0
1.44000, 44.0
1.47500, 42.0
1.51000, 48.0
1.54500, 45.0
1.58000, 46.0
1.61500, 63.0
1.65000, 210.0
1.68500, 796.0
1.72000, 1847.0
1.75500, 2037.0
1.79000, 1121.0
1.82500, 375.0
1.86000, 137.0
1.89500, 60.0
1.93000, 31.0
1.96500, 27.0
2.00000, 38.0
2.03500, 31.0
2.07000, 34.0
2.10500, 26.0
2.14000, 28.0
2.17500, 28.0
2.21000, 74.0
2.24500, 224.0
2.28000, 460.0
2.31500, 552.0
2.35000, 389.0
2.38500, 212.0
2.42000, 136.0
2.45500, 95.0
2.49000, 71.0
2.52500, 42.0
2.56000, 28.0
2.59500, 28.0
2.63000, 16.0
2.66500, 21.0
2.70000, 12.0
2.73500, 13.0
2.77000, 16.0
2.80500, 12.0
2.84000, 13.0
2.87500, 19.0
2.91000, 17.0
2.94500, 12.0
2.98000, 15.0
3.01500, 12.0
3.05000, 10.0
3.08500, 18.0
3.12000, 18.0
3.15500, 18.0
3.19000, 9.0
3.22500, 12.0
3.26000, 14.0
3.29500, 13.0
3.33000, 12.0
3.36500, 11.0
3.40000, 10.0
3.43500, 21.0
3.47000, 15.0
3.50500, 12.0
3.54000, 18.0
3.57500, 14.0
3.61000, 7.0
3.64500, 11.0
3.68000, 11.0
3.71500, 8.0
3.75000, 11.0
3.78500, 12.0
3.82000, 12.0
3.85500, 9.0
3.89000, 11.0
3.92500, 14.0
3.96000, 12.0
3.99500, 14.0
4.03000, 6.0
4.06500, 7.0
4.10000, 12.0
4.13500, 5.0
4.17000, 15.0
4.20500, 9.0
4.24000, 7.0
4.27500, 6.0
4.31000, 7.0
4.34500, 10.0
4.38000, 6.0
4.41500, 8.0
4.45000, 12.0
4.48500, 11.0
4.52000, 12.0
4.55500, 9.0
4.59000, 9.0
4.62500, 9.0
4.66000, 8.0
4.69500, 5.0
4.73000, 7.0
4.76500, 4.0
4.80000, 3.0
4.83500, 8.0
4.87000, 4.0
4.90500, 8.0
4.94000, 8.0
4.97500, 8.0
5.01000, 8.0
5.04500, 7.0
5.08000, 4.0
5.11500, 7.0
5.15000, 5.0
5.18500, 7.0
5.22000, 5.0
5.25500, 8.0
5.29000, 5.0
5.32500, 5.0
5.36000, 3.0
5.39500, 10.0
5.43000, 7.0
5.46500, 6.0
5.50000, 9.0
5.53500, 6.0
5.57000, 3.0
5.60500, 5.0
5.64000, 3.0
5.67500, 5.0
5.71000, 7.0
5.74500, 6.0
5.78000, 4.0
5.81500, 7.0
5.85000, 6.0
5.88500, 4.0
5.92000, 5.0
5.95500, 9.0
5.99000, 4.0
6.02500, 4.0
6.06000, 5.0
6.09500, 5.0
6.13000, 3.0
6.16500, 4.0
6.20000, 3.0
6.23500, 6.0
6.27000, 3.0
6.30500, 2.0
6.34000, 2.0
6.37500, 4.0
6.41000, 2.0
6.44500, 3.0
6.48000, 5.0
6.51500, 8.0
6.55000, 2.0
6.58500, 6.0
6.62000, 5.0
6.65500, 4.0
6.69000, 4.0
6.72500, 2.0
6.76000, 4.0
6.79500, 3.0
6.83000, 4.0
6.86500, 6.0
6.90000, 5.0
6.93500, 1.0
6.97000, 2.0
7.00500, 5.0
7.04000, 7.0
7.07500, 5.0
7.11000, 5.0
7.14500, 4.0
7.18000, 4.0
7.21500, 3.0
7.25000, 4.0
7.28500, 3.0
7.32000, 4.0
7.35500, 3.0
7.39000, 1.0
7.42500, 3.0
7.46000, 1.0
7.49500, 4.0
7.53000, 2.0
7.56500, 3.0
7.60000, 3.0
7.63500, 3.0
7.67000, 3.0
7.70500, 3.0
7.74000, 1.0
7.77500, 2.0
7.81000, 3.0
7.84500, 2.0
7.88000, 2.0
7.91500, 2.0
7.95000, 4.0
7.98500, 1.0
8.02000, 3.0
8.05500, 2.0
8.09000, 2.0
8.12500, 3.0
8.16000, 3.0
8.19500, 3.0
8.23000, 2.0
8.26500, 5.0
8.30000, 1.0
8.33500, 4.0
8.37000, 4.0
8.40500, 4.0
8.44000, 0.0
8.47500, 5.0
8.51000, 0.0
8.54500, 1.0
8.58000, 0.0
8.61500, 0.0
8.65000, 1.0
8.68500, 0.0
8.72000, 2.0
8.75500, 3.0
8.79000, 2.0
8.82500, 2.0
8.86000, 3.0
8.89500, 1.0
8.93000, 3.0
8.96500, 0.0
9.00000, 2.0
9.03500, 1.0
9.07000, 2.0
9.10500, 0.0
9.14000, 0.0
9.17500, 2.0
9.21000, 1.0
9.24500, 2.0
9.28000, 0.0
9.31500, 2.0
9.35000, 2.0
9.38500, 1.0
9.42000, 1.0
9.45500, 1.0
9.49000, 0.0
9.52500, 0.0
9.56000, 0.0
9.59500, 1.0
9.63000, 1.0
9.66500, 2.0
9.70000, 1.0
9.73500, 1.0
9.77000, 0.0
9.80500, 1.0
9.84000, 0.0
9.87500, 1.0
9.91000, 0.0
9.94500, 2.0
9.98000, 0.0
10.01500, 0.0
10.05000, 0.0
10.08500, 0.0
10.12000, 0.0
10.13500, 0.0
#ENDOFDATA   :