Folder: Sommarjobb-2024/spectrums WS2 30keV (part 2)

File: A11_30keV_300924_A2_3.txt
#FORMAT      : EMSA/MAS Spectral Data File
#VERSION     : 1.0
#TITLE       : A11_10keV_300924_A2_3
#DATE        : 30-SEP-2024
#TIME        : 15:20
#OWNER       :
#NPOINTS     : 2048.0
#NCOLUMNS    : 1.0
#XUNITS      : keV
#YUNITS      : counts
#DATATYPE    : XY
#XPERCHAN    : 0.02
#OFFSET      : -0.4
#SIGNALTYPE  : EDS
#CHOFFSET    : 20.0
#LIVETIME    : 60.0859
#REALTIME    : 74.6272
#BEAMKV      : 30.0
#MAGCAM      : 16000.0
#XTILTSTGE   : 0.0
#AZIMANGLE   : 0.0
#ELEVANGLE   : 25.5
#XPOSITION mm: 2.4258
#YPOSITION mm: -0.8530
#ZPOSITION mm: 12.8688
##OXINSTPT   : 2
##OXINSTSTROB: 74.66
##OXINSTELEMS: 30,8,16
##OXINSTLABEL: 30, 8.639, Zn K?1
##OXINSTLABEL: 30, 9.572, Zn K?1
##OXINSTLABEL: 30, 1.012, Zn L?1,2
##OXINSTLABEL: 30, 0.906, Zn L?
##OXINSTLABEL: 30, 0.884, Zn Ll
##OXINSTLABEL: 8, 0.525, O K?1
##OXINSTLABEL: 16, 2.308, S K?1
##OXINSTLABEL: 16, 2.464, S K?1
#SPECTRUM    : Spectral Data Starts Here
-0.40000, 0.0
-0.26000, 0.0
-0.12000, 0.0
0.02000, 2305.0
0.16000, 707.0
0.30000, 847.0
0.44000, 1632.0
0.58000, 3756.0
0.72000, 734.0
0.86000, 1180.0
1.00000, 1643.0
1.14000, 2201.0
1.28000, 2791.0
1.42000, 4036.0
1.56000, 5627.0
1.70000, 336684.0
1.84000, 69240.0
1.98000, 894.0
2.12000, 731.0
2.26000, 2656.0
2.40000, 1459.0
2.54000, 937.0
2.68000, 957.0
2.82000, 1010.0
2.96000, 1131.0
3.10000, 1226.0
3.24000, 1277.0
3.38000, 2523.0
3.52000, 9489.0
3.66000, 1457.0
3.80000, 1171.0
3.94000, 1198.0
4.08000, 1265.0
4.22000, 1165.0
4.36000, 1170.0
4.50000, 1155.0
4.64000, 1136.0
4.78000, 1142.0
4.92000, 1106.0
5.06000, 1110.0
5.20000, 1289.0
5.34000, 1131.0
5.48000, 1064.0
5.62000, 1020.0
5.76000, 982.0
5.90000, 1008.0
6.04000, 1015.0
6.18000, 893.0
6.32000, 982.0
6.46000, 962.0
6.60000, 884.0
6.74000, 854.0
6.88000, 802.0
7.02000, 857.0
7.16000, 827.0
7.30000, 827.0
7.44000, 790.0
7.58000, 762.0
7.72000, 749.0
7.86000, 805.0
8.00000, 728.0
8.14000, 719.0
8.28000, 923.0
8.42000, 1341.0
8.56000, 709.0
8.70000, 657.0
8.84000, 659.0
8.98000, 641.0
9.12000, 603.0
9.26000, 589.0
9.40000, 557.0
9.54000, 675.0
9.68000, 872.0
9.82000, 635.0
9.96000, 653.0
10.10000, 589.0
10.24000, 494.0
10.38000, 483.0
10.52000, 500.0
10.66000, 474.0
10.80000, 457.0
10.94000, 418.0
11.08000, 424.0
11.22000, 445.0
11.36000, 456.0
11.50000, 415.0
11.64000, 399.0
11.78000, 358.0
11.92000, 344.0
12.06000, 339.0
12.20000, 350.0
12.34000, 335.0
12.48000, 313.0
12.62000, 315.0
12.76000, 310.0
12.90000, 261.0
13.04000, 288.0
13.18000, 268.0
13.32000, 269.0
13.46000, 246.0
13.60000, 260.0
13.74000, 258.0
13.88000, 224.0
14.02000, 240.0
14.16000, 221.0
14.30000, 197.0
14.44000, 203.0
14.58000, 190.0
14.72000, 181.0
14.86000, 165.0
15.00000, 180.0
15.14000, 168.0
15.28000, 174.0
15.42000, 148.0
15.56000, 140.0
15.70000, 146.0
15.84000, 137.0
15.98000, 136.0
16.12000, 132.0
16.26000, 130.0
16.40000, 121.0
16.54000, 129.0
16.68000, 118.0
16.82000, 111.0
16.96000, 107.0
17.10000, 102.0
17.24000, 98.0
17.38000, 92.0
17.52000, 95.0
17.66000, 103.0
17.80000, 74.0
17.94000, 96.0
18.08000, 84.0
18.22000, 71.0
18.36000, 83.0
18.50000, 82.0
18.64000, 70.0
18.78000, 71.0
18.92000, 65.0
19.06000, 71.0
19.20000, 66.0
19.34000, 54.0
19.48000, 72.0
19.62000, 52.0
19.76000, 56.0
19.90000, 62.0
20.04000, 52.0
20.18000, 42.0
20.32000, 36.0
20.46000, 38.0
20.60000, 42.0
20.74000, 39.0
20.88000, 44.0
21.02000, 33.0
21.16000, 31.0
21.30000, 37.0
21.44000, 37.0
21.58000, 38.0
21.72000, 41.0
21.86000, 29.0
22.00000, 25.0
22.14000, 30.0
22.28000, 30.0
22.42000, 25.0
22.56000, 17.0
22.70000, 18.0
22.84000, 31.0
22.98000, 22.0
23.12000, 23.0
23.26000, 17.0
23.40000, 18.0
23.54000, 12.0
23.68000, 20.0
23.82000, 18.0
23.96000, 15.0
24.10000, 13.0
24.24000, 18.0
24.38000, 14.0
24.52000, 13.0
24.66000, 16.0
24.80000, 10.0
24.94000, 19.0
25.08000, 12.0
25.22000, 16.0
25.36000, 8.0
25.50000, 11.0
25.64000, 15.0
25.78000, 8.0
25.92000, 7.0
26.06000, 9.0
26.20000, 6.0
26.34000, 9.0
26.48000, 5.0
26.62000, 7.0
26.76000, 4.0
26.90000, 7.0
27.04000, 6.0
27.18000, 5.0
27.32000, 5.0
27.46000, 1.0
27.60000, 1.0
27.74000, 6.0
27.88000, 5.0
28.02000, 3.0
28.16000, 5.0
28.30000, 4.0
28.44000, 3.0
28.58000, 3.0
28.72000, 3.0
28.86000, 3.0
29.00000, 2.0
29.14000, 2.0
29.28000, 2.0
29.42000, 2.0
29.56000, 1.0
29.70000, 3.0
29.84000, 0.0
29.98000, 0.0
30.12000, 0.0
30.26000, 0.0
30.40000, 0.0
30.54000, 1.0
30.68000, 1.0
30.82000, 0.0
30.96000, 0.0
31.10000, 1.0
31.24000, 0.0
31.38000, 0.0
31.52000, 0.0
31.66000, 0.0
31.80000, 0.0
31.94000, 0.0
32.08000, 0.0
32.22000, 0.0
32.36000, 0.0
32.50000, 1.0
32.64000, 0.0
32.78000, 0.0
32.92000, 0.0
33.06000, 0.0
33.20000, 0.0
33.34000, 0.0
33.48000, 0.0
33.62000, 0.0
33.76000, 0.0
33.90000, 0.0
34.04000, 0.0
34.18000, 0.0
34.32000, 0.0
34.46000, 0.0
34.60000, 0.0
34.74000, 0.0
34.88000, 0.0
35.02000, 0.0
35.16000, 0.0
35.30000, 0.0
35.44000, 0.0
35.58000, 0.0
35.72000, 1.0
35.86000, 0.0
36.00000, 0.0
36.14000, 0.0
36.28000, 0.0
36.42000, 0.0
36.56000, 0.0
36.70000, 0.0
36.84000, 0.0
36.98000, 0.0
37.12000, 0.0
37.26000, 0.0
37.40000, 0.0
37.54000, 0.0
37.68000, 0.0
37.82000, 0.0
37.96000, 0.0
38.10000, 0.0
38.24000, 0.0
38.38000, 0.0
38.52000, 0.0
38.66000, 0.0
38.80000, 0.0
38.94000, 0.0
39.08000, 0.0
39.22000, 0.0
39.36000, 0.0
39.50000, 0.0
39.64000, 0.0
39.78000, 0.0
39.92000, 0.0
40.06000, 0.0
40.20000, 0.0
40.34000, 0.0
40.48000, 0.0
40.54000, 0.0
#ENDOFDATA   :

File: B6_30keV_300924_A1_1.txt
#FORMAT      : EMSA/MAS Spectral Data File
#VERSION     : 1.0
#TITLE       : B6_10keV_300924_A1_1
#DATE        : 30-SEP-2024
#TIME        : 15:24
#OWNER       :
#NPOINTS     : 2048.0
#NCOLUMNS    : 1.0
#XUNITS      : keV
#YUNITS      : counts
#DATATYPE    : XY
#XPERCHAN    : 0.02
#OFFSET      : -0.4
#SIGNALTYPE  : EDS
#CHOFFSET    : 20.0
#LIVETIME    : 60.002
#REALTIME    : 75.1265
#BEAMKV      : 30.0
#MAGCAM      : 3500.0
#XTILTSTGE   : 0.0
#AZIMANGLE   : 0.0
#ELEVANGLE   : 25.5
#XPOSITION mm: 2.0680
#YPOSITION mm: 0.4145
#ZPOSITION mm: 12.8688
##OXINSTPT   : 2
##OXINSTSTROB: 74.67
##OXINSTELEMS: 30,8,16
##OXINSTLABEL: 30, 8.639, Zn K?1
##OXINSTLABEL: 30, 9.572, Zn K?1
##OXINSTLABEL: 30, 1.012, Zn L?1,2
##OXINSTLABEL: 30, 0.906, Zn L?
##OXINSTLABEL: 30, 0.884, Zn Ll
##OXINSTLABEL: 8, 0.525, O K?1
##OXINSTLABEL: 16, 2.308, S K?1
##OXINSTLABEL: 16, 2.464, S K?1
#SPECTRUM    : Spectral Data Starts Here
-0.40000, 0.0
-0.26000, 0.0
-0.12000, 0.0
0.02000, 2367.0
0.16000, 519.0
0.30000, 724.0
0.44000, 2162.0
0.58000, 4989.0
0.72000, 662.0
0.86000, 1139.0
1.00000, 1577.0
1.14000, 2198.0
1.28000, 2775.0
1.42000, 3874.0
1.56000, 5865.0
1.70000, 353628.0
1.84000, 71001.0
1.98000, 729.0
2.12000, 662.0
2.26000, 1749.0
2.40000, 1004.0
2.54000, 900.0
2.68000, 914.0
2.82000, 1046.0
2.96000, 1117.0
3.10000, 1205.0
3.24000, 1306.0
3.38000, 2714.0
3.52000, 10300.0
3.66000, 1502.0
3.80000, 1142.0
3.94000, 1200.0
4.08000, 1249.0
4.22000, 1197.0
4.36000, 1140.0
4.50000, 1210.0
4.64000, 1143.0
4.78000, 1122.0
4.92000, 1093.0
5.06000, 1124.0
5.20000, 1293.0
5.34000, 1134.0
5.48000, 1052.0
5.62000, 1073.0
5.76000, 1012.0
5.90000, 996.0
6.04000, 1017.0
6.18000, 952.0
6.32000, 936.0
6.46000, 960.0
6.60000, 923.0
6.74000, 869.0
6.88000, 874.0
7.02000, 849.0
7.16000, 813.0
7.30000, 816.0
7.44000, 785.0
7.58000, 757.0
7.72000, 735.0
7.86000, 709.0
8.00000, 713.0
8.14000, 690.0
8.28000, 728.0
8.42000, 840.0
8.56000, 653.0
8.70000, 599.0
8.84000, 626.0
8.98000, 631.0
9.12000, 578.0
9.26000, 542.0
9.40000, 547.0
9.54000, 594.0
9.68000, 634.0
9.82000, 575.0
9.96000, 557.0
10.10000, 506.0
10.24000, 501.0
10.38000, 462.0
10.52000, 452.0
10.66000, 446.0
10.80000, 441.0
10.94000, 428.0
11.08000, 398.0
11.22000, 392.0
11.36000, 390.0
11.50000, 384.0
11.64000, 373.0
11.78000, 379.0
11.92000, 323.0
12.06000, 334.0
12.20000, 346.0
12.34000, 344.0
12.48000, 337.0
12.62000, 306.0
12.76000, 327.0
12.90000, 277.0
13.04000, 277.0
13.18000, 273.0
13.32000, 254.0
13.46000, 262.0
13.60000, 255.0
13.74000, 233.0
13.88000, 237.0
14.02000, 225.0
14.16000, 227.0
14.30000, 201.0
14.44000, 224.0
14.58000, 194.0
14.72000, 189.0
14.86000, 188.0
15.00000, 179.0
15.14000, 167.0
15.28000, 178.0
15.42000, 155.0
15.56000, 154.0
15.70000, 141.0
15.84000, 145.0
15.98000, 142.0
16.12000, 141.0
16.26000, 133.0
16.40000, 102.0
16.54000, 116.0
16.68000, 113.0
16.82000, 110.0
16.96000, 101.0
17.10000, 102.0
17.24000, 98.0
17.38000, 96.0
17.52000, 84.0
17.66000, 99.0
17.80000, 97.0
17.94000, 88.0
18.08000, 84.0
18.22000, 68.0
18.36000, 75.0
18.50000, 72.0
18.64000, 64.0
18.78000, 65.0
18.92000, 69.0
19.06000, 63.0
19.20000, 63.0
19.34000, 63.0
19.48000, 48.0
19.62000, 45.0
19.76000, 55.0
19.90000, 54.0
20.04000, 47.0
20.18000, 41.0
20.32000, 42.0
20.46000, 36.0
20.60000, 45.0
20.74000, 45.0
20.88000, 45.0
21.02000, 45.0
21.16000, 35.0
21.30000, 28.0
21.44000, 26.0
21.58000, 31.0
21.72000, 26.0
21.86000, 23.0
22.00000, 26.0
22.14000, 22.0
22.28000, 32.0
22.42000, 31.0
22.56000, 24.0
22.70000, 20.0
22.84000, 19.0
22.98000, 27.0
23.12000, 14.0
23.26000, 21.0
23.40000, 19.0
23.54000, 14.0
23.68000, 15.0
23.82000, 13.0
23.96000, 13.0
24.10000, 14.0
24.24000, 15.0
24.38000, 9.0
24.52000, 16.0
24.66000, 9.0
24.80000, 14.0
24.94000, 16.0
25.08000, 10.0
25.22000, 9.0
25.36000, 7.0
25.50000, 10.0
25.64000, 9.0
25.78000, 9.0
25.92000, 9.0
26.06000, 9.0
26.20000, 7.0
26.34000, 4.0
26.48000, 6.0
26.62000, 8.0
26.76000, 9.0
26.90000, 5.0
27.04000, 3.0
27.18000, 3.0
27.32000, 1.0
27.46000, 2.0
27.60000, 3.0
27.74000, 3.0
27.88000, 4.0
28.02000, 1.0
28.16000, 3.0
28.30000, 4.0
28.44000, 0.0
28.58000, 2.0
28.72000, 2.0
28.86000, 3.0
29.00000, 5.0
29.14000, 1.0
29.28000, 0.0
29.42000, 2.0
29.56000, 1.0
29.70000, 1.0
29.84000, 2.0
29.98000, 0.0
30.12000, 0.0
30.26000, 0.0
30.40000, 0.0
30.54000, 0.0
30.68000, 0.0
30.82000, 0.0
30.96000, 0.0
31.10000, 0.0
31.24000, 0.0
31.38000, 0.0
31.52000, 0.0
31.66000, 0.0
31.80000, 1.0
31.94000, 0.0
32.08000, 0.0
32.22000, 1.0
32.36000, 0.0
32.50000, 0.0
32.64000, 0.0
32.78000, 0.0
32.92000, 0.0
33.06000, 0.0
33.20000, 0.0
33.34000, 0.0
33.48000, 0.0
33.62000, 0.0
33.76000, 0.0
33.90000, 0.0
34.04000, 0.0
34.18000, 0.0
34.32000, 0.0
34.46000, 0.0
34.60000, 0.0
34.74000, 0.0
34.88000, 0.0
35.02000, 0.0
35.16000, 0.0
35.30000, 0.0
35.44000, 0.0
35.58000, 0.0
35.72000, 0.0
35.86000, 0.0
36.00000, 0.0
36.14000, 0.0
36.28000, 0.0
36.42000, 0.0
36.56000, 0.0
36.70000, 0.0
36.84000, 1.0
36.98000, 0.0
37.12000, 0.0
37.26000, 0.0
37.40000, 0.0
37.54000, 0.0
37.68000, 0.0
37.82000, 0.0
37.96000, 0.0
38.10000, 0.0
38.24000, 0.0
38.38000, 0.0
38.52000, 0.0
38.66000, 0.0
38.80000, 0.0
38.94000, 0.0
39.08000, 0.0
39.22000, 0.0
39.36000, 0.0
39.50000, 0.0
39.64000, 0.0
39.78000, 0.0
39.92000, 0.0
40.06000, 0.0
40.20000, 1.0
40.34000, 0.0
40.48000, 0.0
40.54000, 0.0
#ENDOFDATA   :

File: B6_30keV_300924_A1_2.txt
#FORMAT      : EMSA/MAS Spectral Data File
#VERSION     : 1.0
#TITLE       : B6_10keV_300924_A1_2
#DATE        : 30-SEP-2024
#TIME        : 15:25
#OWNER       :
#NPOINTS     : 2048.0
#NCOLUMNS    : 1.0
#XUNITS      : keV
#YUNITS      : counts
#DATATYPE    : XY
#XPERCHAN    : 0.02
#OFFSET      : -0.4
#SIGNALTYPE  : EDS
#CHOFFSET    : 20.0
#LIVETIME    : 60.002
#REALTIME    : 75.1338
#BEAMKV      : 30.0
#MAGCAM      : 3500.0
#XTILTSTGE   : 0.0
#AZIMANGLE   : 0.0
#ELEVANGLE   : 25.5
#XPOSITION mm: 2.0680
#YPOSITION mm: 0.4145
#ZPOSITION mm: 12.8688
##OXINSTPT   : 2
##OXINSTSTROB: 74.73
##OXINSTELEMS: 30,8,16
##OXINSTLABEL: 30, 8.639, Zn K?1
##OXINSTLABEL: 30, 9.572, Zn K?1
##OXINSTLABEL: 30, 1.012, Zn L?1,2
##OXINSTLABEL: 30, 0.906, Zn L?
##OXINSTLABEL: 30, 0.884, Zn Ll
##OXINSTLABEL: 8, 0.525, O K?1
##OXINSTLABEL: 16, 2.308, S K?1
##OXINSTLABEL: 16, 2.464, S K?1
#SPECTRUM    : Spectral Data Starts Here
-0.40000, 0.0
-0.26000, 0.0
-0.12000, 0.0
0.02000, 2226.0
0.16000, 515.0
0.30000, 754.0
0.44000, 2202.0
0.58000, 4995.0
0.72000, 701.0
0.86000, 1112.0
1.00000, 1577.0
1.14000, 2212.0
1.28000, 2878.0
1.42000, 3997.0
1.56000, 5854.0
1.70000, 354340.0
1.84000, 70631.0
1.98000, 786.0
2.12000, 650.0
2.26000, 1772.0
2.40000, 1007.0
2.54000, 858.0
2.68000, 933.0
2.82000, 978.0
2.96000, 1108.0
3.10000, 1198.0
3.24000, 1289.0
3.38000, 2717.0
3.52000, 10333.0
3.66000, 1506.0
3.80000, 1135.0
3.94000, 1169.0
4.08000, 1206.0
4.22000, 1160.0
4.36000, 1165.0
4.50000, 1131.0
4.64000, 1149.0
4.78000, 1171.0
4.92000, 1092.0
5.06000, 1180.0
5.20000, 1328.0
5.34000, 1131.0
5.48000, 1073.0
5.62000, 1035.0
5.76000, 1048.0
5.90000, 992.0
6.04000, 1002.0
6.18000, 982.0
6.32000, 914.0
6.46000, 918.0
6.60000, 886.0
6.74000, 876.0
6.88000, 855.0
7.02000, 827.0
7.16000, 825.0
7.30000, 817.0
7.44000, 810.0
7.58000, 752.0
7.72000, 741.0
7.86000, 721.0
8.00000, 692.0
8.14000, 676.0
8.28000, 744.0
8.42000, 848.0
8.56000, 669.0
8.70000, 658.0
8.84000, 617.0
8.98000, 592.0
9.12000, 591.0
9.26000, 563.0
9.40000, 572.0
9.54000, 561.0
9.68000, 624.0
9.82000, 573.0
9.96000, 550.0
10.10000, 496.0
10.24000, 490.0
10.38000, 458.0
10.52000, 453.0
10.66000, 459.0
10.80000, 426.0
10.94000, 430.0
11.08000, 417.0
11.22000, 412.0
11.36000, 429.0
11.50000, 422.0
11.64000, 383.0
11.78000, 353.0
11.92000, 349.0
12.06000, 349.0
12.20000, 355.0
12.34000, 320.0
12.48000, 314.0
12.62000, 323.0
12.76000, 283.0
12.90000, 281.0
13.04000, 282.0
13.18000, 265.0
13.32000, 248.0
13.46000, 237.0
13.60000, 247.0
13.74000, 255.0
13.88000, 252.0
14.02000, 224.0
14.16000, 213.0
14.30000, 217.0
14.44000, 196.0
14.58000, 193.0
14.72000, 187.0
14.86000, 178.0
15.00000, 164.0
15.14000, 172.0
15.28000, 167.0
15.42000, 149.0
15.56000, 158.0
15.70000, 147.0
15.84000, 146.0
15.98000, 129.0
16.12000, 145.0
16.26000, 125.0
16.40000, 106.0
16.54000, 132.0
16.68000, 127.0
16.82000, 109.0
16.96000, 119.0
17.10000, 101.0
17.24000, 100.0
17.38000, 96.0
17.52000, 98.0
17.66000, 95.0
17.80000, 72.0
17.94000, 86.0
18.08000, 66.0
18.22000, 75.0
18.36000, 72.0
18.50000, 78.0
18.64000, 71.0
18.78000, 69.0
18.92000, 60.0
19.06000, 54.0
19.20000, 58.0
19.34000, 49.0
19.48000, 57.0
19.62000, 59.0
19.76000, 53.0
19.90000, 51.0
20.04000, 43.0
20.18000, 41.0
20.32000, 42.0
20.46000, 42.0
20.60000, 50.0
20.74000, 35.0
20.88000, 33.0
21.02000, 28.0
21.16000, 27.0
21.30000, 31.0
21.44000, 36.0
21.58000, 30.0
21.72000, 30.0
21.86000, 36.0
22.00000, 26.0
22.14000, 24.0
22.28000, 26.0
22.42000, 23.0
22.56000, 22.0
22.70000, 28.0
22.84000, 17.0
22.98000, 26.0
23.12000, 23.0
23.26000, 24.0
23.40000, 13.0
23.54000, 14.0
23.68000, 20.0
23.82000, 20.0
23.96000, 14.0
24.10000, 15.0
24.24000, 13.0
24.38000, 11.0
24.52000, 14.0
24.66000, 14.0
24.80000, 11.0
24.94000, 12.0
25.08000, 9.0
25.22000, 9.0
25.36000, 11.0
25.50000, 5.0
25.64000, 9.0
25.78000, 9.0
25.92000, 5.0
26.06000, 8.0
26.20000, 8.0
26.34000, 7.0
26.48000, 5.0
26.62000, 4.0
26.76000, 6.0
26.90000, 6.0
27.04000, 5.0
27.18000, 4.0
27.32000, 6.0
27.46000, 6.0
27.60000, 3.0
27.74000, 3.0
27.88000, 4.0
28.02000, 3.0
28.16000, 1.0
28.30000, 2.0
28.44000, 5.0
28.58000, 5.0
28.72000, 2.0
28.86000, 3.0
29.00000, 0.0
29.14000, 0.0
29.28000, 0.0
29.42000, 1.0
29.56000, 0.0
29.70000, 0.0
29.84000, 2.0
29.98000, 0.0
30.12000, 0.0
30.26000, 0.0
30.40000, 0.0
30.54000, 0.0
30.68000, 0.0
30.82000, 0.0
30.96000, 1.0
31.10000, 0.0
31.24000, 0.0
31.38000, 0.0
31.52000, 0.0
31.66000, 0.0
31.80000, 0.0
31.94000, 0.0
32.08000, 0.0
32.22000, 0.0
32.36000, 0.0
32.50000, 0.0
32.64000, 0.0
32.78000, 0.0
32.92000, 0.0
33.06000, 0.0
33.20000, 0.0
33.34000, 0.0
33.48000, 0.0
33.62000, 0.0
33.76000, 1.0
33.90000, 0.0
34.04000, 0.0
34.18000, 0.0
34.32000, 0.0
34.46000, 0.0
34.60000, 0.0
34.74000, 0.0
34.88000, 0.0
35.02000, 0.0
35.16000, 0.0
35.30000, 0.0
35.44000, 0.0
35.58000, 0.0
35.72000, 0.0
35.86000, 0.0
36.00000, 0.0
36.14000, 0.0
36.28000, 1.0
36.42000, 0.0
36.56000, 0.0
36.70000, 0.0
36.84000, 0.0
36.98000, 0.0
37.12000, 0.0
37.26000, 0.0
37.40000, 0.0
37.54000, 0.0
37.68000, 0.0
37.82000, 0.0
37.96000, 0.0
38.10000, 0.0
38.24000, 0.0
38.38000, 0.0
38.52000, 0.0
38.66000, 0.0
38.80000, 0.0
38.94000, 0.0
39.08000, 0.0
39.22000, 0.0
39.36000, 0.0
39.50000, 0.0
39.64000, 0.0
39.78000, 0.0
39.92000, 0.0
40.06000, 0.0
40.20000, 0.0
40.34000, 0.0
40.48000, 0.0
40.54000, 0.0
#ENDOFDATA   :

File: B6_30keV_300924_A2_1.txt
#FORMAT      : EMSA/MAS Spectral Data File
#VERSION     : 1.0
#TITLE       : B6_10keV_300924_A2_1
#DATE        : 30-SEP-2024
#TIME        : 15:29
#OWNER       :
#NPOINTS     : 2048.0
#NCOLUMNS    : 1.0
#XUNITS      : keV
#YUNITS      : counts
#DATATYPE    : XY
#XPERCHAN    : 0.02
#OFFSET      : -0.4
#SIGNALTYPE  : EDS
#CHOFFSET    : 20.0
#LIVETIME    : 60.0299
#REALTIME    : 75.2086
#BEAMKV      : 30.0
#MAGCAM      : 3700.0
#XTILTSTGE   : 0.0
#AZIMANGLE   : 0.0
#ELEVANGLE   : 25.5
#XPOSITION mm: 2.0353
#YPOSITION mm: 0.4190
#ZPOSITION mm: 12.8688
##OXINSTPT   : 2
##OXINSTSTROB: 74.68
##OXINSTELEMS: 30,8,16
##OXINSTLABEL: 30, 8.639, Zn K?1
##OXINSTLABEL: 30, 9.572, Zn K?1
##OXINSTLABEL: 30, 1.012, Zn L?1,2
##OXINSTLABEL: 30, 0.906, Zn L?
##OXINSTLABEL: 30, 0.884, Zn Ll
##OXINSTLABEL: 8, 0.525, O K?1
##OXINSTLABEL: 16, 2.308, S K?1
##OXINSTLABEL: 16, 2.464, S K?1
#SPECTRUM    : Spectral Data Starts Here
-0.40000, 0.0
-0.26000, 0.0
-0.12000, 0.0
0.02000, 2319.0
0.16000, 500.0
0.30000, 746.0
0.44000, 2168.0
0.58000, 5074.0
0.72000, 662.0
0.86000, 1090.0
1.00000, 1587.0
1.14000, 2278.0
1.28000, 2849.0
1.42000, 3871.0
1.56000, 5797.0
1.70000, 355627.0
1.84000, 71288.0
1.98000, 778.0
2.12000, 651.0
2.26000, 1714.0
2.40000, 1033.0
2.54000, 857.0
2.68000, 925.0
2.82000, 1057.0
2.96000, 1089.0
3.10000, 1129.0
3.24000, 1283.0
3.38000, 2718.0
3.52000, 10442.0
3.66000, 1518.0
3.80000, 1100.0
3.94000, 1160.0
4.08000, 1211.0
4.22000, 1205.0
4.36000, 1137.0
4.50000, 1173.0
4.64000, 1157.0
4.78000, 1136.0
4.92000, 1088.0
5.06000, 1123.0
5.20000, 1293.0
5.34000, 1155.0
5.48000, 1062.0
5.62000, 1030.0
5.76000, 970.0
5.90000, 1001.0
6.04000, 965.0
6.18000, 993.0
6.32000, 959.0
6.46000, 961.0
6.60000, 874.0
6.74000, 878.0
6.88000, 888.0
7.02000, 828.0
7.16000, 872.0
7.30000, 797.0
7.44000, 788.0
7.58000, 764.0
7.72000, 749.0
7.86000, 736.0
8.00000, 721.0
8.14000, 707.0
8.28000, 768.0
8.42000, 823.0
8.56000, 665.0
8.70000, 649.0
8.84000, 610.0
8.98000, 606.0
9.12000, 604.0
9.26000, 598.0
9.40000, 528.0
9.54000, 589.0
9.68000, 634.0
9.82000, 531.0
9.96000, 545.0
10.10000, 519.0
10.24000, 489.0
10.38000, 461.0
10.52000, 449.0
10.66000, 450.0
10.80000, 449.0
10.94000, 440.0
11.08000, 430.0
11.22000, 417.0
11.36000, 401.0
11.50000, 376.0
11.64000, 386.0
11.78000, 365.0
11.92000, 357.0
12.06000, 346.0
12.20000, 338.0
12.34000, 307.0
12.48000, 306.0
12.62000, 319.0
12.76000, 318.0
12.90000, 272.0
13.04000, 282.0
13.18000, 265.0
13.32000, 267.0
13.46000, 252.0
13.60000, 246.0
13.74000, 230.0
13.88000, 221.0
14.02000, 222.0
14.16000, 206.0
14.30000, 217.0
14.44000, 200.0
14.58000, 183.0
14.72000, 188.0
14.86000, 172.0
15.00000, 175.0
15.14000, 169.0
15.28000, 172.0
15.42000, 156.0
15.56000, 149.0
15.70000, 142.0
15.84000, 125.0
15.98000, 137.0
16.12000, 142.0
16.26000, 134.0
16.40000, 118.0
16.54000, 124.0
16.68000, 130.0
16.82000, 108.0
16.96000, 115.0
17.10000, 110.0
17.24000, 95.0
17.38000, 92.0
17.52000, 91.0
17.66000, 88.0
17.80000, 86.0
17.94000, 78.0
18.08000, 85.0
18.22000, 75.0
18.36000, 79.0
18.50000, 65.0
18.64000, 69.0
18.78000, 65.0
18.92000, 62.0
19.06000, 61.0
19.20000, 58.0
19.34000, 48.0
19.48000, 59.0
19.62000, 53.0
19.76000, 43.0
19.90000, 45.0
20.04000, 45.0
20.18000, 45.0
20.32000, 42.0
20.46000, 46.0
20.60000, 41.0
20.74000, 35.0
20.88000, 38.0
21.02000, 25.0
21.16000, 36.0
21.30000, 29.0
21.44000, 24.0
21.58000, 26.0
21.72000, 38.0
21.86000, 27.0
22.00000, 27.0
22.14000, 33.0
22.28000, 21.0
22.42000, 31.0
22.56000, 19.0
22.70000, 19.0
22.84000, 18.0
22.98000, 32.0
23.12000, 20.0
23.26000, 14.0
23.40000, 16.0
23.54000, 18.0
23.68000, 22.0
23.82000, 17.0
23.96000, 19.0
24.10000, 17.0
24.24000, 16.0
24.38000, 14.0
24.52000, 6.0
24.66000, 11.0
24.80000, 11.0
24.94000, 9.0
25.08000, 11.0
25.22000, 14.0
25.36000, 12.0
25.50000, 10.0
25.64000, 6.0
25.78000, 12.0
25.92000, 12.0
26.06000, 8.0
26.20000, 8.0
26.34000, 11.0
26.48000, 4.0
26.62000, 6.0
26.76000, 4.0
26.90000, 4.0
27.04000, 3.0
27.18000, 4.0
27.32000, 1.0
27.46000, 3.0
27.60000, 6.0
27.74000, 4.0
27.88000, 2.0
28.02000, 3.0
28.16000, 6.0
28.30000, 1.0
28.44000, 2.0
28.58000, 2.0
28.72000, 1.0
28.86000, 0.0
29.00000, 1.0
29.14000, 1.0
29.28000, 1.0
29.42000, 2.0
29.56000, 1.0
29.70000, 0.0
29.84000, 1.0
29.98000, 2.0
30.12000, 0.0
30.26000, 0.0
30.40000, 1.0
30.54000, 0.0
30.68000, 0.0
30.82000, 0.0
30.96000, 0.0
31.10000, 0.0
31.24000, 1.0
31.38000, 0.0
31.52000, 0.0
31.66000, 0.0
31.80000, 0.0
31.94000, 1.0
32.08000, 0.0
32.22000, 0.0
32.36000, 0.0
32.50000, 0.0
32.64000, 0.0
32.78000, 0.0
32.92000, 0.0
33.06000, 1.0
33.20000, 0.0
33.34000, 0.0
33.48000, 1.0
33.62000, 0.0
33.76000, 0.0
33.90000, 0.0
34.04000, 0.0
34.18000, 0.0
34.32000, 0.0
34.46000, 0.0
34.60000, 0.0
34.74000, 0.0
34.88000, 0.0
35.02000, 0.0
35.16000, 0.0
35.30000, 0.0
35.44000, 0.0
35.58000, 0.0
35.72000, 0.0
35.86000, 0.0
36.00000, 0.0
36.14000, 0.0
36.28000, 0.0
36.42000, 0.0
36.56000, 0.0
36.70000, 0.0
36.84000, 0.0
36.98000, 0.0
37.12000, 0.0
37.26000, 0.0
37.40000, 0.0
37.54000, 0.0
37.68000, 0.0
37.82000, 0.0
37.96000, 0.0
38.10000, 0.0
38.24000, 0.0
38.38000, 0.0
38.52000, 0.0
38.66000, 0.0
38.80000, 0.0
38.94000, 0.0
39.08000, 0.0
39.22000, 0.0
39.36000, 0.0
39.50000, 0.0
39.64000, 0.0
39.78000, 0.0
39.92000, 0.0
40.06000, 0.0
40.20000, 0.0
40.34000, 0.0
40.48000, 0.0
40.54000, 0.0
#ENDOFDATA   :