Folder: Sommarjobb-2024/Spectras 300724

File: A10_10k_310724_2.txt
#FORMAT      : EMSA/MAS Spectral Data File
#VERSION     : 1.0
#TITLE       : A10_10k_310724_2
#DATE        : 30-JUL-2024
#TIME        : 10:11
#OWNER       :
#NPOINTS     : 2048.0
#NCOLUMNS    : 1.0
#XUNITS      : keV
#YUNITS      : counts
#DATATYPE    : XY
#XPERCHAN    : 0.005
#OFFSET      : -0.1
#SIGNALTYPE  : EDS
#CHOFFSET    : 20.0
#LIVETIME    : 60.0298
#REALTIME    : 60.7725
#BEAMKV      : 10.0
#MAGCAM      : 4500.0
#XTILTSTGE   : 0.0
#AZIMANGLE   : 0.0
#ELEVANGLE   : 25.5
#XPOSITION mm: -0.4115
#YPOSITION mm: -1.5498
#ZPOSITION mm: 13.8532
##OXINSTPT   : 2
##OXINSTSTROB: 69.68
##OXINSTELEMS: 6,8,29,79,78,14
##OXINSTLABEL: 6, 0.277, C K?1_2
##OXINSTLABEL: 8, 0.525, O K?1
##OXINSTLABEL: 29, 8.048, Cu K?1
##OXINSTLABEL: 29, 8.905, Cu K?1
##OXINSTLABEL: 29, 0.930, Cu L?1,2
##OXINSTLABEL: 29, 0.832, Cu L?
##OXINSTLABEL: 29, 0.811, Cu Ll
##OXINSTLABEL: 79, 9.713, Au L?1
##OXINSTLABEL: 79, 8.494, Au Ll
##OXINSTLABEL: 79, 2.123, Au M?1
##OXINSTLABEL: 79, 2.410, Au M?
##OXINSTLABEL: 79, 1.648, Au M?2
##OXINSTLABEL: 79, 0.265, Au N4-N6
##OXINSTLABEL: 79, 0.251, Au N5-N6,7
##OXINSTLABEL: 78, 9.442, Pt L?1
##OXINSTLABEL: 78, 9.975, Pt L?
##OXINSTLABEL: 78, 8.268, Pt Ll
##OXINSTLABEL: 78, 2.050, Pt M?1
##OXINSTLABEL: 78, 2.331, Pt M?
##OXINSTLABEL: 78, 1.592, Pt M?2
##OXINSTLABEL: 78, 0.258, Pt N4-N6
##OXINSTLABEL: 78, 0.244, Pt N5-N6,7
##OXINSTLABEL: 14, 1.740, Si K?1
#SPECTRUM    : Spectral Data Starts Here
-0.10000, 0.0
-0.06500, 4.0
-0.03000, 90.0
0.00500, 707.0
0.04000, 1334.0
0.07500, 884.0
0.11000, 225.0
0.14500, 189.0
0.18000, 149.0
0.21500, 76.0
0.25000, 42.0
0.28500, 35.0
0.32000, 11.0
0.35500, 11.0
0.39000, 10.0
0.42500, 20.0
0.46000, 23.0
0.49500, 26.0
0.53000, 55.0
0.56500, 60.0
0.60000, 57.0
0.63500, 47.0
0.67000, 45.0
0.70500, 38.0
0.74000, 50.0
0.77500, 48.0
0.81000, 50.0
0.84500, 47.0
0.88000, 52.0
0.91500, 55.0
0.95000, 57.0
0.98500, 53.0
1.02000, 57.0
1.05500, 53.0
1.09000, 57.0
1.12500, 62.0
1.16000, 60.0
1.19500, 65.0
1.23000, 50.0
1.26500, 53.0
1.30000, 55.0
1.33500, 53.0
1.37000, 58.0
1.40500, 65.0
1.44000, 51.0
1.47500, 59.0
1.51000, 51.0
1.54500, 52.0
1.58000, 48.0
1.61500, 56.0
1.65000, 62.0
1.68500, 61.0
1.72000, 68.0
1.75500, 77.0
1.79000, 66.0
1.82500, 48.0
1.86000, 45.0
1.89500, 44.0
1.93000, 51.0
1.96500, 52.0
2.00000, 64.0
2.03500, 77.0
2.07000, 56.0
2.10500, 61.0
2.14000, 58.0
2.17500, 83.0
2.21000, 250.0
2.24500, 747.0
2.28000, 1603.0
2.31500, 1906.0
2.35000, 1334.0
2.38500, 707.0
2.42000, 417.0
2.45500, 300.0
2.49000, 176.0
2.52500, 125.0
2.56000, 60.0
2.59500, 39.0
2.63000, 33.0
2.66500, 29.0
2.70000, 27.0
2.73500, 21.0
2.77000, 23.0
2.80500, 22.0
2.84000, 28.0
2.87500, 22.0
2.91000, 23.0
2.94500, 24.0
2.98000, 25.0
3.01500, 17.0
3.05000, 21.0
3.08500, 15.0
3.12000, 16.0
3.15500, 21.0
3.19000, 24.0
3.22500, 11.0
3.26000, 20.0
3.29500, 14.0
3.33000, 20.0
3.36500, 16.0
3.40000, 22.0
3.43500, 29.0
3.47000, 20.0
3.50500, 14.0
3.54000, 9.0
3.57500, 19.0
3.61000, 15.0
3.64500, 21.0
3.68000, 22.0
3.71500, 13.0
3.75000, 25.0
3.78500, 16.0
3.82000, 15.0
3.85500, 16.0
3.89000, 23.0
3.92500, 18.0
3.96000, 15.0
3.99500, 13.0
4.03000, 15.0
4.06500, 21.0
4.10000, 17.0
4.13500, 18.0
4.17000, 15.0
4.20500, 9.0
4.24000, 17.0
4.27500, 14.0
4.31000, 11.0
4.34500, 14.0
4.38000, 23.0
4.41500, 12.0
4.45000, 20.0
4.48500, 13.0
4.52000, 17.0
4.55500, 13.0
4.59000, 8.0
4.62500, 13.0
4.66000, 10.0
4.69500, 18.0
4.73000, 19.0
4.76500, 6.0
4.80000, 13.0
4.83500, 16.0
4.87000, 13.0
4.90500, 10.0
4.94000, 9.0
4.97500, 11.0
5.01000, 11.0
5.04500, 10.0
5.08000, 13.0
5.11500, 14.0
5.15000, 10.0
5.18500, 14.0
5.22000, 11.0
5.25500, 13.0
5.29000, 9.0
5.32500, 6.0
5.36000, 13.0
5.39500, 9.0
5.43000, 12.0
5.46500, 12.0
5.50000, 13.0
5.53500, 11.0
5.57000, 9.0
5.60500, 12.0
5.64000, 14.0
5.67500, 13.0
5.71000, 8.0
5.74500, 9.0
5.78000, 9.0
5.81500, 8.0
5.85000, 12.0
5.88500, 8.0
5.92000, 8.0
5.95500, 9.0
5.99000, 8.0
6.02500, 9.0
6.06000, 9.0
6.09500, 8.0
6.13000, 7.0
6.16500, 11.0
6.20000, 9.0
6.23500, 7.0
6.27000, 5.0
6.30500, 8.0
6.34000, 12.0
6.37500, 10.0
6.41000, 7.0
6.44500, 9.0
6.48000, 8.0
6.51500, 6.0
6.55000, 7.0
6.58500, 5.0
6.62000, 10.0
6.65500, 6.0
6.69000, 6.0
6.72500, 6.0
6.76000, 6.0
6.79500, 7.0
6.83000, 6.0
6.86500, 4.0
6.90000, 8.0
6.93500, 4.0
6.97000, 5.0
7.00500, 9.0
7.04000, 6.0
7.07500, 7.0
7.11000, 9.0
7.14500, 7.0
7.18000, 7.0
7.21500, 4.0
7.25000, 6.0
7.28500, 4.0
7.32000, 4.0
7.35500, 4.0
7.39000, 4.0
7.42500, 5.0
7.46000, 4.0
7.49500, 4.0
7.53000, 6.0
7.56500, 6.0
7.60000, 4.0
7.63500, 8.0
7.67000, 5.0
7.70500, 4.0
7.74000, 4.0
7.77500, 2.0
7.81000, 4.0
7.84500, 3.0
7.88000, 1.0
7.91500, 4.0
7.95000, 1.0
7.98500, 3.0
8.02000, 3.0
8.05500, 5.0
8.09000, 2.0
8.12500, 3.0
8.16000, 4.0
8.19500, 3.0
8.23000, 4.0
8.26500, 5.0
8.30000, 3.0
8.33500, 3.0
8.37000, 3.0
8.40500, 4.0
8.44000, 6.0
8.47500, 3.0
8.51000, 4.0
8.54500, 2.0
8.58000, 2.0
8.61500, 3.0
8.65000, 1.0
8.68500, 1.0
8.72000, 1.0
8.75500, 2.0
8.79000, 1.0
8.82500, 1.0
8.86000, 5.0
8.89500, 1.0
8.93000, 0.0
8.96500, 2.0
9.00000, 2.0
9.03500, 1.0
9.07000, 1.0
9.10500, 0.0
9.14000, 1.0
9.17500, 2.0
9.21000, 1.0
9.24500, 1.0
9.28000, 4.0
9.31500, 1.0
9.35000, 0.0
9.38500, 3.0
9.42000, 0.0
9.45500, 2.0
9.49000, 1.0
9.52500, 0.0
9.56000, 0.0
9.59500, 0.0
9.63000, 0.0
9.66500, 1.0
9.70000, 0.0
9.73500, 0.0
9.77000, 1.0
9.80500, 0.0
9.84000, 0.0
9.87500, 0.0
9.91000, 0.0
9.94500, 0.0
9.98000, 0.0
10.01500, 0.0
10.05000, 0.0
10.08500, 0.0
10.12000, 0.0
10.13500, 0.0
#ENDOFDATA   :

File: B15_10k_310724_2.txt
#FORMAT      : EMSA/MAS Spectral Data File
#VERSION     : 1.0
#TITLE       : B15_10k_310724_2
#DATE        : 30-JUL-2024
#TIME        : 09:40
#OWNER       :
#NPOINTS     : 1024.0
#NCOLUMNS    : 1.0
#XUNITS      : keV
#YUNITS      : counts
#DATATYPE    : XY
#XPERCHAN    : 0.01
#OFFSET      : -0.1
#SIGNALTYPE  : EDS
#CHOFFSET    : 10.0
#LIVETIME    : 60.0809
#REALTIME    : 60.8386
#BEAMKV      : 10.0
#MAGCAM      : 18000.0
#XTILTSTGE   : 0.0
#AZIMANGLE   : 0.0
#ELEVANGLE   : 25.5
#XPOSITION mm: -1.7025
#YPOSITION mm: -1.4290
#ZPOSITION mm: 13.8180
##OXINSTPT   : 2
##OXINSTSTROB: 69.76
##OXINSTELEMS: 6,8,29,79,78,14
##OXINSTLABEL: 6, 0.277, C K?1_2
##OXINSTLABEL: 8, 0.525, O K?1
##OXINSTLABEL: 29, 8.048, Cu K?1
##OXINSTLABEL: 29, 8.905, Cu K?1
##OXINSTLABEL: 29, 0.930, Cu L?1,2
##OXINSTLABEL: 29, 0.832, Cu L?
##OXINSTLABEL: 29, 0.811, Cu Ll
##OXINSTLABEL: 79, 9.713, Au L?1
##OXINSTLABEL: 79, 8.494, Au Ll
##OXINSTLABEL: 79, 2.123, Au M?1
##OXINSTLABEL: 79, 2.410, Au M?
##OXINSTLABEL: 79, 1.648, Au M?2
##OXINSTLABEL: 79, 0.265, Au N4-N6
##OXINSTLABEL: 79, 0.251, Au N5-N6,7
##OXINSTLABEL: 78, 9.442, Pt L?1
##OXINSTLABEL: 78, 9.975, Pt L?
##OXINSTLABEL: 78, 8.268, Pt Ll
##OXINSTLABEL: 78, 2.050, Pt M?1
##OXINSTLABEL: 78, 2.331, Pt M?
##OXINSTLABEL: 78, 1.592, Pt M?2
##OXINSTLABEL: 78, 0.258, Pt N4-N6
##OXINSTLABEL: 78, 0.244, Pt N5-N6,7
##OXINSTLABEL: 14, 1.740, Si K?1
#SPECTRUM    : Spectral Data Starts Here
-0.10000, 0.0
-0.06000, 18.0
-0.02000, 453.0
0.02000, 2001.0
0.06000, 2334.0
0.10000, 672.0
0.14000, 136.0
0.18000, 110.0
0.22000, 109.0
0.26000, 192.0
0.30000, 138.0
0.34000, 48.0
0.38000, 41.0
0.42000, 41.0
0.46000, 131.0
0.50000, 488.0
0.54000, 498.0
0.58000, 182.0
0.62000, 47.0
0.66000, 38.0
0.70000, 46.0
0.74000, 53.0
0.78000, 60.0
0.82000, 65.0
0.86000, 68.0
0.90000, 61.0
0.94000, 60.0
0.98000, 68.0
1.02000, 73.0
1.06000, 83.0
1.10000, 68.0
1.14000, 88.0
1.18000, 70.0
1.22000, 72.0
1.26000, 69.0
1.30000, 74.0
1.34000, 71.0
1.38000, 71.0
1.42000, 79.0
1.46000, 72.0
1.50000, 64.0
1.54000, 93.0
1.58000, 90.0
1.62000, 102.0
1.66000, 493.0
1.70000, 2020.0
1.74000, 3430.0
1.78000, 2378.0
1.82000, 748.0
1.86000, 224.0
1.90000, 83.0
1.94000, 50.0
1.98000, 42.0
2.02000, 48.0
2.06000, 47.0
2.10000, 38.0
2.14000, 38.0
2.18000, 60.0
2.22000, 133.0
2.26000, 412.0
2.30000, 639.0
2.34000, 550.0
2.38000, 274.0
2.42000, 178.0
2.46000, 107.0
2.50000, 80.0
2.54000, 53.0
2.58000, 31.0
2.62000, 39.0
2.66000, 28.0
2.70000, 30.0
2.74000, 24.0
2.78000, 26.0
2.82000, 21.0
2.86000, 31.0
2.90000, 26.0
2.94000, 25.0
2.98000, 23.0
3.02000, 21.0
3.06000, 24.0
3.10000, 25.0
3.14000, 21.0
3.18000, 17.0
3.22000, 25.0
3.26000, 21.0
3.30000, 23.0
3.34000, 14.0
3.38000, 22.0
3.42000, 21.0
3.46000, 20.0
3.50000, 19.0
3.54000, 22.0
3.58000, 26.0
3.62000, 18.0
3.66000, 15.0
3.70000, 14.0
3.74000, 18.0
3.78000, 19.0
3.82000, 16.0
3.86000, 24.0
3.90000, 18.0
3.94000, 19.0
3.98000, 12.0
4.02000, 16.0
4.06000, 16.0
4.10000, 13.0
4.14000, 9.0
4.18000, 15.0
4.22000, 15.0
4.26000, 10.0
4.30000, 12.0
4.34000, 18.0
4.38000, 12.0
4.42000, 15.0
4.46000, 11.0
4.50000, 11.0
4.54000, 13.0
4.58000, 13.0
4.62000, 15.0
4.66000, 14.0
4.70000, 13.0
4.74000, 14.0
4.78000, 13.0
4.82000, 14.0
4.86000, 16.0
4.90000, 11.0
4.94000, 13.0
4.98000, 10.0
5.02000, 11.0
5.06000, 9.0
5.10000, 14.0
5.14000, 13.0
5.18000, 10.0
5.22000, 6.0
5.26000, 11.0
5.30000, 9.0
5.34000, 9.0
5.38000, 8.0
5.42000, 2.0
5.46000, 4.0
5.50000, 11.0
5.54000, 15.0
5.58000, 10.0
5.62000, 5.0
5.66000, 9.0
5.70000, 5.0
5.74000, 5.0
5.78000, 6.0
5.82000, 6.0
5.86000, 11.0
5.90000, 7.0
5.94000, 9.0
5.98000, 9.0
6.02000, 7.0
6.06000, 10.0
6.10000, 11.0
6.14000, 9.0
6.18000, 7.0
6.22000, 6.0
6.26000, 5.0
6.30000, 6.0
6.34000, 13.0
6.38000, 5.0
6.42000, 6.0
6.46000, 9.0
6.50000, 6.0
6.54000, 12.0
6.58000, 9.0
6.62000, 5.0
6.66000, 10.0
6.70000, 7.0
6.74000, 9.0
6.78000, 6.0
6.82000, 5.0
6.86000, 4.0
6.90000, 6.0
6.94000, 3.0
6.98000, 1.0
7.02000, 5.0
7.06000, 5.0
7.10000, 3.0
7.14000, 6.0
7.18000, 10.0
7.22000, 4.0
7.26000, 5.0
7.30000, 4.0
7.34000, 4.0
7.38000, 3.0
7.42000, 4.0
7.46000, 4.0
7.50000, 4.0
7.54000, 4.0
7.58000, 5.0
7.62000, 3.0
7.66000, 1.0
7.70000, 5.0
7.74000, 5.0
7.78000, 2.0
7.82000, 1.0
7.86000, 6.0
7.90000, 1.0
7.94000, 5.0
7.98000, 2.0
8.02000, 3.0
8.06000, 5.0
8.10000, 2.0
8.14000, 5.0
8.18000, 3.0
8.22000, 5.0
8.26000, 2.0
8.30000, 1.0
8.34000, 1.0
8.38000, 4.0
8.42000, 6.0
8.46000, 2.0
8.50000, 4.0
8.54000, 3.0
8.58000, 4.0
8.62000, 3.0
8.66000, 2.0
8.70000, 2.0
8.74000, 1.0
8.78000, 1.0
8.82000, 3.0
8.86000, 4.0
8.90000, 1.0
8.94000, 1.0
8.98000, 3.0
9.02000, 3.0
9.06000, 1.0
9.10000, 0.0
9.14000, 2.0
9.18000, 2.0
9.22000, 1.0
9.26000, 2.0
9.30000, 2.0
9.34000, 1.0
9.38000, 0.0
9.42000, 2.0
9.46000, 1.0
9.50000, 1.0
9.54000, 1.0
9.58000, 0.0
9.62000, 0.0
9.66000, 0.0
9.70000, 0.0
9.74000, 0.0
9.78000, 1.0
9.82000, 1.0
9.86000, 1.0
9.90000, 0.0
9.94000, 0.0
9.98000, 0.0
10.02000, 0.0
10.06000, 0.0
10.10000, 0.0
10.13000, 0.0
#ENDOFDATA   :

File: B15_10k_310724_3.txt
#FORMAT      : EMSA/MAS Spectral Data File
#VERSION     : 1.0
#TITLE       : B15_10k_310724_3
#DATE        : 30-JUL-2024
#TIME        : 09:41
#OWNER       :
#NPOINTS     : 1024.0
#NCOLUMNS    : 1.0
#XUNITS      : keV
#YUNITS      : counts
#DATATYPE    : XY
#XPERCHAN    : 0.01
#OFFSET      : -0.1
#SIGNALTYPE  : EDS
#CHOFFSET    : 10.0
#LIVETIME    : 60.0277
#REALTIME    : 60.6983
#BEAMKV      : 10.0
#MAGCAM      : 18000.0
#XTILTSTGE   : 0.0
#AZIMANGLE   : 0.0
#ELEVANGLE   : 25.5
#XPOSITION mm: -1.7025
#YPOSITION mm: -1.4290
#ZPOSITION mm: 13.8180
##OXINSTPT   : 2
##OXINSTSTROB: 69.72
##OXINSTELEMS: 6,8,29,79,78,14
##OXINSTLABEL: 6, 0.277, C K?1_2
##OXINSTLABEL: 8, 0.525, O K?1
##OXINSTLABEL: 29, 8.048, Cu K?1
##OXINSTLABEL: 29, 8.905, Cu K?1
##OXINSTLABEL: 29, 0.930, Cu L?1,2
##OXINSTLABEL: 29, 0.832, Cu L?
##OXINSTLABEL: 29, 0.811, Cu Ll
##OXINSTLABEL: 79, 9.713, Au L?1
##OXINSTLABEL: 79, 8.494, Au Ll
##OXINSTLABEL: 79, 2.123, Au M?1
##OXINSTLABEL: 79, 2.410, Au M?
##OXINSTLABEL: 79, 1.648, Au M?2
##OXINSTLABEL: 79, 0.265, Au N4-N6
##OXINSTLABEL: 79, 0.251, Au N5-N6,7
##OXINSTLABEL: 78, 9.442, Pt L?1
##OXINSTLABEL: 78, 9.975, Pt L?
##OXINSTLABEL: 78, 8.268, Pt Ll
##OXINSTLABEL: 78, 2.050, Pt M?1
##OXINSTLABEL: 78, 2.331, Pt M?
##OXINSTLABEL: 78, 1.592, Pt M?2
##OXINSTLABEL: 78, 0.258, Pt N4-N6
##OXINSTLABEL: 78, 0.244, Pt N5-N6,7
##OXINSTLABEL: 14, 1.740, Si K?1
#SPECTRUM    : Spectral Data Starts Here
-0.10000, 0.0
-0.06000, 20.0
-0.02000, 414.0
0.02000, 2040.0
0.06000, 2358.0
0.10000, 666.0
0.14000, 132.0
0.18000, 117.0
0.22000, 125.0
0.26000, 217.0
0.30000, 166.0
0.34000, 48.0
0.38000, 45.0
0.42000, 53.0
0.46000, 136.0
0.50000, 442.0
0.54000, 497.0
0.58000, 148.0
0.62000, 46.0
0.66000, 36.0
0.70000, 47.0
0.74000, 49.0
0.78000, 53.0
0.82000, 61.0
0.86000, 63.0
0.90000, 73.0
0.94000, 65.0
0.98000, 63.0
1.02000, 68.0
1.06000, 68.0
1.10000, 70.0
1.14000, 72.0
1.18000, 77.0
1.22000, 66.0
1.26000, 65.0
1.30000, 62.0
1.34000, 79.0
1.38000, 79.0
1.42000, 72.0
1.46000, 77.0
1.50000, 71.0
1.54000, 76.0
1.58000, 87.0
1.62000, 100.0
1.66000, 483.0
1.70000, 2004.0
1.74000, 3355.0
1.78000, 2326.0
1.82000, 732.0
1.86000, 224.0
1.90000, 84.0
1.94000, 46.0
1.98000, 48.0
2.02000, 48.0
2.06000, 42.0
2.10000, 43.0
2.14000, 50.0
2.18000, 51.0
2.22000, 129.0
2.26000, 407.0
2.30000, 671.0
2.34000, 550.0
2.38000, 298.0
2.42000, 172.0
2.46000, 117.0
2.50000, 81.0
2.54000, 44.0
2.58000, 39.0
2.62000, 34.0
2.66000, 30.0
2.70000, 27.0
2.74000, 26.0
2.78000, 24.0
2.82000, 28.0
2.86000, 28.0
2.90000, 19.0
2.94000, 21.0
2.98000, 21.0
3.02000, 14.0
3.06000, 21.0
3.10000, 27.0
3.14000, 20.0
3.18000, 22.0
3.22000, 21.0
3.26000, 22.0
3.30000, 21.0
3.34000, 20.0
3.38000, 21.0
3.42000, 26.0
3.46000, 26.0
3.50000, 14.0
3.54000, 19.0
3.58000, 16.0
3.62000, 20.0
3.66000, 14.0
3.70000, 14.0
3.74000, 23.0
3.78000, 16.0
3.82000, 17.0
3.86000, 20.0
3.90000, 18.0
3.94000, 17.0
3.98000, 18.0
4.02000, 15.0
4.06000, 20.0
4.10000, 19.0
4.14000, 13.0
4.18000, 12.0
4.22000, 11.0
4.26000, 8.0
4.30000, 11.0
4.34000, 13.0
4.38000, 15.0
4.42000, 15.0
4.46000, 7.0
4.50000, 14.0
4.54000, 7.0
4.58000, 15.0
4.62000, 14.0
4.66000, 11.0
4.70000, 6.0
4.74000, 13.0
4.78000, 8.0
4.82000, 18.0
4.86000, 11.0
4.90000, 11.0
4.94000, 12.0
4.98000, 9.0
5.02000, 8.0
5.06000, 8.0
5.10000, 8.0
5.14000, 8.0
5.18000, 11.0
5.22000, 8.0
5.26000, 4.0
5.30000, 9.0
5.34000, 9.0
5.38000, 4.0
5.42000, 8.0
5.46000, 8.0
5.50000, 12.0
5.54000, 10.0
5.58000, 10.0
5.62000, 4.0
5.66000, 8.0
5.70000, 6.0
5.74000, 4.0
5.78000, 6.0
5.82000, 5.0
5.86000, 5.0
5.90000, 8.0
5.94000, 8.0
5.98000, 7.0
6.02000, 7.0
6.06000, 3.0
6.10000, 4.0
6.14000, 5.0
6.18000, 6.0
6.22000, 6.0
6.26000, 7.0
6.30000, 4.0
6.34000, 7.0
6.38000, 3.0
6.42000, 6.0
6.46000, 5.0
6.50000, 7.0
6.54000, 6.0
6.58000, 6.0
6.62000, 9.0
6.66000, 3.0
6.70000, 4.0
6.74000, 6.0
6.78000, 1.0
6.82000, 4.0
6.86000, 9.0
6.90000, 7.0
6.94000, 7.0
6.98000, 3.0
7.02000, 3.0
7.06000, 7.0
7.10000, 6.0
7.14000, 4.0
7.18000, 7.0
7.22000, 9.0
7.26000, 5.0
7.30000, 6.0
7.34000, 2.0
7.38000, 6.0
7.42000, 8.0
7.46000, 6.0
7.50000, 6.0
7.54000, 5.0
7.58000, 4.0
7.62000, 5.0
7.66000, 4.0
7.70000, 3.0
7.74000, 3.0
7.78000, 3.0
7.82000, 2.0
7.86000, 6.0
7.90000, 2.0
7.94000, 4.0
7.98000, 1.0
8.02000, 3.0
8.06000, 4.0
8.10000, 3.0
8.14000, 5.0
8.18000, 4.0
8.22000, 1.0
8.26000, 3.0
8.30000, 0.0
8.34000, 4.0
8.38000, 3.0
8.42000, 2.0
8.46000, 2.0
8.50000, 2.0
8.54000, 2.0
8.58000, 2.0
8.62000, 0.0
8.66000, 3.0
8.70000, 0.0
8.74000, 1.0
8.78000, 3.0
8.82000, 0.0
8.86000, 4.0
8.90000, 4.0
8.94000, 3.0
8.98000, 2.0
9.02000, 4.0
9.06000, 1.0
9.10000, 2.0
9.14000, 2.0
9.18000, 1.0
9.22000, 2.0
9.26000, 3.0
9.30000, 0.0
9.34000, 2.0
9.38000, 1.0
9.42000, 0.0
9.46000, 2.0
9.50000, 1.0
9.54000, 2.0
9.58000, 1.0
9.62000, 1.0
9.66000, 2.0
9.70000, 0.0
9.74000, 1.0
9.78000, 2.0
9.82000, 1.0
9.86000, 2.0
9.90000, 0.0
9.94000, 1.0
9.98000, 0.0
10.02000, 0.0
10.06000, 0.0
10.10000, 0.0
10.13000, 0.0
#ENDOFDATA   :

File: B15_10k_310724_5.txt
#FORMAT      : EMSA/MAS Spectral Data File
#VERSION     : 1.0
#TITLE       : B15_10k_310724_5
#DATE        : 30-JUL-2024
#TIME        : 09:43
#OWNER       :
#NPOINTS     : 1024.0
#NCOLUMNS    : 1.0
#XUNITS      : keV
#YUNITS      : counts
#DATATYPE    : XY
#XPERCHAN    : 0.01
#OFFSET      : -0.1
#SIGNALTYPE  : EDS
#CHOFFSET    : 10.0
#LIVETIME    : 59.9865
#REALTIME    : 60.6477
#BEAMKV      : 10.0
#MAGCAM      : 18000.0
#XTILTSTGE   : 0.0
#AZIMANGLE   : 0.0
#ELEVANGLE   : 25.5
#XPOSITION mm: -1.7025
#YPOSITION mm: -1.4290
#ZPOSITION mm: 13.8180
##OXINSTPT   : 2
##OXINSTSTROB: 69.75
##OXINSTELEMS: 6,8,29,79,78,14
##OXINSTLABEL: 6, 0.277, C K?1_2
##OXINSTLABEL: 8, 0.525, O K?1
##OXINSTLABEL: 29, 8.048, Cu K?1
##OXINSTLABEL: 29, 8.905, Cu K?1
##OXINSTLABEL: 29, 0.930, Cu L?1,2
##OXINSTLABEL: 29, 0.832, Cu L?
##OXINSTLABEL: 29, 0.811, Cu Ll
##OXINSTLABEL: 79, 9.713, Au L?1
##OXINSTLABEL: 79, 8.494, Au Ll
##OXINSTLABEL: 79, 2.123, Au M?1
##OXINSTLABEL: 79, 2.410, Au M?
##OXINSTLABEL: 79, 1.648, Au M?2
##OXINSTLABEL: 79, 0.265, Au N4-N6
##OXINSTLABEL: 79, 0.251, Au N5-N6,7
##OXINSTLABEL: 78, 9.442, Pt L?1
##OXINSTLABEL: 78, 9.975, Pt L?
##OXINSTLABEL: 78, 8.268, Pt Ll
##OXINSTLABEL: 78, 2.050, Pt M?1
##OXINSTLABEL: 78, 2.331, Pt M?
##OXINSTLABEL: 78, 1.592, Pt M?2
##OXINSTLABEL: 78, 0.258, Pt N4-N6
##OXINSTLABEL: 78, 0.244, Pt N5-N6,7
##OXINSTLABEL: 14, 1.740, Si K?1
#SPECTRUM    : Spectral Data Starts Here
-0.10000, 0.0
-0.06000, 14.0
-0.02000, 452.0
0.02000, 2007.0
0.06000, 2416.0
0.10000, 663.0
0.14000, 137.0
0.18000, 122.0
0.22000, 111.0
0.26000, 188.0
0.30000, 158.0
0.34000, 40.0
0.38000, 37.0
0.42000, 50.0
0.46000, 145.0
0.50000, 484.0
0.54000, 522.0
0.58000, 165.0
0.62000, 57.0
0.66000, 42.0
0.70000, 50.0
0.74000, 43.0
0.78000, 43.0
0.82000, 57.0
0.86000, 63.0
0.90000, 73.0
0.94000, 57.0
0.98000, 75.0
1.02000, 69.0
1.06000, 78.0
1.10000, 64.0
1.14000, 61.0
1.18000, 67.0
1.22000, 76.0
1.26000, 71.0
1.30000, 68.0
1.34000, 69.0
1.38000, 76.0
1.42000, 69.0
1.46000, 66.0
1.50000, 71.0
1.54000, 80.0
1.58000, 69.0
1.62000, 104.0
1.66000, 493.0
1.70000, 2061.0
1.74000, 3423.0
1.78000, 2334.0
1.82000, 676.0
1.86000, 209.0
1.90000, 93.0
1.94000, 42.0
1.98000, 41.0
2.02000, 56.0
2.06000, 48.0
2.10000, 43.0
2.14000, 41.0
2.18000, 58.0
2.22000, 145.0
2.26000, 392.0
2.30000, 662.0
2.34000, 537.0
2.38000, 279.0
2.42000, 153.0
2.46000, 104.0
2.50000, 73.0
2.54000, 59.0
2.58000, 40.0
2.62000, 37.0
2.66000, 31.0
2.70000, 33.0
2.74000, 30.0
2.78000, 22.0
2.82000, 27.0
2.86000, 24.0
2.90000, 25.0
2.94000, 22.0
2.98000, 17.0
3.02000, 25.0
3.06000, 21.0
3.10000, 23.0
3.14000, 31.0
3.18000, 26.0
3.22000, 22.0
3.26000, 18.0
3.30000, 21.0
3.34000, 22.0
3.38000, 22.0
3.42000, 17.0
3.46000, 23.0
3.50000, 19.0
3.54000, 20.0
3.58000, 15.0
3.62000, 21.0
3.66000, 17.0
3.70000, 18.0
3.74000, 21.0
3.78000, 17.0
3.82000, 15.0
3.86000, 20.0
3.90000, 19.0
3.94000, 18.0
3.98000, 17.0
4.02000, 17.0
4.06000, 16.0
4.10000, 15.0
4.14000, 15.0
4.18000, 15.0
4.22000, 19.0
4.26000, 15.0
4.30000, 13.0
4.34000, 11.0
4.38000, 12.0
4.42000, 18.0
4.46000, 12.0
4.50000, 16.0
4.54000, 13.0
4.58000, 16.0
4.62000, 15.0
4.66000, 11.0
4.70000, 12.0
4.74000, 14.0
4.78000, 10.0
4.82000, 5.0
4.86000, 15.0
4.90000, 13.0
4.94000, 9.0
4.98000, 12.0
5.02000, 10.0
5.06000, 10.0
5.10000, 10.0
5.14000, 8.0
5.18000, 10.0
5.22000, 11.0
5.26000, 4.0
5.30000, 5.0
5.34000, 8.0
5.38000, 9.0
5.42000, 9.0
5.46000, 15.0
5.50000, 11.0
5.54000, 9.0
5.58000, 6.0
5.62000, 4.0
5.66000, 10.0
5.70000, 8.0
5.74000, 11.0
5.78000, 9.0
5.82000, 7.0
5.86000, 8.0
5.90000, 7.0
5.94000, 2.0
5.98000, 6.0
6.02000, 5.0
6.06000, 6.0
6.10000, 3.0
6.14000, 7.0
6.18000, 7.0
6.22000, 11.0
6.26000, 8.0
6.30000, 8.0
6.34000, 3.0
6.38000, 8.0
6.42000, 6.0
6.46000, 7.0
6.50000, 1.0
6.54000, 9.0
6.58000, 5.0
6.62000, 9.0
6.66000, 9.0
6.70000, 6.0
6.74000, 7.0
6.78000, 10.0
6.82000, 7.0
6.86000, 5.0
6.90000, 11.0
6.94000, 4.0
6.98000, 4.0
7.02000, 1.0
7.06000, 3.0
7.10000, 6.0
7.14000, 5.0
7.18000, 3.0
7.22000, 5.0
7.26000, 5.0
7.30000, 1.0
7.34000, 6.0
7.38000, 2.0
7.42000, 6.0
7.46000, 3.0
7.50000, 1.0
7.54000, 3.0
7.58000, 7.0
7.62000, 5.0
7.66000, 4.0
7.70000, 3.0
7.74000, 3.0
7.78000, 3.0
7.82000, 3.0
7.86000, 0.0
7.90000, 4.0
7.94000, 4.0
7.98000, 5.0
8.02000, 1.0
8.06000, 1.0
8.10000, 3.0
8.14000, 4.0
8.18000, 1.0
8.22000, 3.0
8.26000, 1.0
8.30000, 1.0
8.34000, 3.0
8.38000, 4.0
8.42000, 3.0
8.46000, 1.0
8.50000, 4.0
8.54000, 4.0
8.58000, 2.0
8.62000, 6.0
8.66000, 2.0
8.70000, 4.0
8.74000, 3.0
8.78000, 1.0
8.82000, 1.0
8.86000, 0.0
8.90000, 2.0
8.94000, 0.0
8.98000, 3.0
9.02000, 4.0
9.06000, 1.0
9.10000, 2.0
9.14000, 1.0
9.18000, 1.0
9.22000, 2.0
9.26000, 2.0
9.30000, 1.0
9.34000, 4.0
9.38000, 2.0
9.42000, 1.0
9.46000, 2.0
9.50000, 2.0
9.54000, 2.0
9.58000, 2.0
9.62000, 2.0
9.66000, 0.0
9.70000, 1.0
9.74000, 0.0
9.78000, 0.0
9.82000, 2.0
9.86000, 0.0
9.90000, 0.0
9.94000, 1.0
9.98000, 0.0
10.02000, 0.0
10.06000, 1.0
10.10000, 1.0
10.13000, 0.0
#ENDOFDATA   :

File: B15_10k_310724_7.txt
#FORMAT      : EMSA/MAS Spectral Data File
#VERSION     : 1.0
#TITLE       : B15_10k_310724_7
#DATE        : 30-JUL-2024
#TIME        : 09:45
#OWNER       :
#NPOINTS     : 1024.0
#NCOLUMNS    : 1.0
#XUNITS      : keV
#YUNITS      : counts
#DATATYPE    : XY
#XPERCHAN    : 0.01
#OFFSET      : -0.1
#SIGNALTYPE  : EDS
#CHOFFSET    : 10.0
#LIVETIME    : 60.043
#REALTIME    : 60.7547
#BEAMKV      : 10.0
#MAGCAM      : 18000.0
#XTILTSTGE   : 0.0
#AZIMANGLE   : 0.0
#ELEVANGLE   : 25.5
#XPOSITION mm: -1.7025
#YPOSITION mm: -1.4290
#ZPOSITION mm: 13.8180
##OXINSTPT   : 2
##OXINSTSTROB: 69.67
##OXINSTELEMS: 6,8,29,79,78,14
##OXINSTLABEL: 6, 0.277, C K?1_2
##OXINSTLABEL: 8, 0.525, O K?1
##OXINSTLABEL: 29, 8.048, Cu K?1
##OXINSTLABEL: 29, 8.905, Cu K?1
##OXINSTLABEL: 29, 0.930, Cu L?1,2
##OXINSTLABEL: 29, 0.832, Cu L?
##OXINSTLABEL: 29, 0.811, Cu Ll
##OXINSTLABEL: 79, 9.713, Au L?1
##OXINSTLABEL: 79, 8.494, Au Ll
##OXINSTLABEL: 79, 2.123, Au M?1
##OXINSTLABEL: 79, 2.410, Au M?
##OXINSTLABEL: 79, 1.648, Au M?2
##OXINSTLABEL: 79, 0.265, Au N4-N6
##OXINSTLABEL: 79, 0.251, Au N5-N6,7
##OXINSTLABEL: 78, 9.442, Pt L?1
##OXINSTLABEL: 78, 9.975, Pt L?
##OXINSTLABEL: 78, 8.268, Pt Ll
##OXINSTLABEL: 78, 2.050, Pt M?1
##OXINSTLABEL: 78, 2.331, Pt M?
##OXINSTLABEL: 78, 1.592, Pt M?2
##OXINSTLABEL: 78, 0.258, Pt N4-N6
##OXINSTLABEL: 78, 0.244, Pt N5-N6,7
##OXINSTLABEL: 14, 1.740, Si K?1
#SPECTRUM    : Spectral Data Starts Here
-0.10000, 0.0
-0.06000, 13.0
-0.02000, 422.0
0.02000, 2026.0
0.06000, 2402.0
0.10000, 671.0
0.14000, 126.0
0.18000, 127.0
0.22000, 106.0
0.26000, 174.0
0.30000, 170.0
0.34000, 56.0
0.38000, 36.0
0.42000, 42.0
0.46000, 139.0
0.50000, 454.0
0.54000, 492.0
0.58000, 172.0
0.62000, 49.0
0.66000, 43.0
0.70000, 47.0
0.74000, 50.0
0.78000, 56.0
0.82000, 59.0
0.86000, 59.0
0.90000, 63.0
0.94000, 72.0
0.98000, 59.0
1.02000, 56.0
1.06000, 69.0
1.10000, 69.0
1.14000, 62.0
1.18000, 79.0
1.22000, 73.0
1.26000, 63.0
1.30000, 74.0
1.34000, 68.0
1.38000, 66.0
1.42000, 68.0
1.46000, 65.0
1.50000, 66.0
1.54000, 75.0
1.58000, 81.0
1.62000, 112.0
1.66000, 492.0
1.70000, 2014.0
1.74000, 3409.0
1.78000, 2300.0
1.82000, 734.0
1.86000, 220.0
1.90000, 84.0
1.94000, 47.0
1.98000, 45.0
2.02000, 52.0
2.06000, 42.0
2.10000, 45.0
2.14000, 48.0
2.18000, 51.0
2.22000, 136.0
2.26000, 398.0
2.30000, 629.0
2.34000, 526.0
2.38000, 278.0
2.42000, 162.0
2.46000, 115.0
2.50000, 74.0
2.54000, 53.0
2.58000, 39.0
2.62000, 37.0
2.66000, 33.0
2.70000, 29.0
2.74000, 26.0
2.78000, 23.0
2.82000, 30.0
2.86000, 24.0
2.90000, 25.0
2.94000, 19.0
2.98000, 19.0
3.02000, 27.0
3.06000, 22.0
3.10000, 23.0
3.14000, 26.0
3.18000, 25.0
3.22000, 12.0
3.26000, 22.0
3.30000, 19.0
3.34000, 19.0
3.38000, 18.0
3.42000, 24.0
3.46000, 14.0
3.50000, 18.0
3.54000, 19.0
3.58000, 18.0
3.62000, 17.0
3.66000, 23.0
3.70000, 11.0
3.74000, 12.0
3.78000, 18.0
3.82000, 18.0
3.86000, 20.0
3.90000, 23.0
3.94000, 23.0
3.98000, 16.0
4.02000, 18.0
4.06000, 15.0
4.10000, 14.0
4.14000, 18.0
4.18000, 16.0
4.22000, 14.0
4.26000, 17.0
4.30000, 15.0
4.34000, 13.0
4.38000, 15.0
4.42000, 15.0
4.46000, 12.0
4.50000, 14.0
4.54000, 11.0
4.58000, 11.0
4.62000, 12.0
4.66000, 16.0
4.70000, 11.0
4.74000, 16.0
4.78000, 16.0
4.82000, 10.0
4.86000, 17.0
4.90000, 12.0
4.94000, 10.0
4.98000, 7.0
5.02000, 12.0
5.06000, 10.0
5.10000, 12.0
5.14000, 12.0
5.18000, 5.0
5.22000, 14.0
5.26000, 10.0
5.30000, 8.0
5.34000, 7.0
5.38000, 8.0
5.42000, 8.0
5.46000, 7.0
5.50000, 7.0
5.54000, 8.0
5.58000, 8.0
5.62000, 7.0
5.66000, 11.0
5.70000, 8.0
5.74000, 11.0
5.78000, 10.0
5.82000, 5.0
5.86000, 7.0
5.90000, 5.0
5.94000, 9.0
5.98000, 6.0
6.02000, 3.0
6.06000, 5.0
6.10000, 9.0
6.14000, 8.0
6.18000, 6.0
6.22000, 3.0
6.26000, 7.0
6.30000, 5.0
6.34000, 2.0
6.38000, 9.0
6.42000, 10.0
6.46000, 12.0
6.50000, 2.0
6.54000, 7.0
6.58000, 8.0
6.62000, 7.0
6.66000, 4.0
6.70000, 2.0
6.74000, 5.0
6.78000, 4.0
6.82000, 5.0
6.86000, 7.0
6.90000, 5.0
6.94000, 5.0
6.98000, 5.0
7.02000, 4.0
7.06000, 1.0
7.10000, 4.0
7.14000, 8.0
7.18000, 3.0
7.22000, 1.0
7.26000, 3.0
7.30000, 10.0
7.34000, 2.0
7.38000, 1.0
7.42000, 6.0
7.46000, 5.0
7.50000, 4.0
7.54000, 5.0
7.58000, 7.0
7.62000, 3.0
7.66000, 6.0
7.70000, 3.0
7.74000, 7.0
7.78000, 4.0
7.82000, 2.0
7.86000, 3.0
7.90000, 4.0
7.94000, 1.0
7.98000, 3.0
8.02000, 5.0
8.06000, 3.0
8.10000, 3.0
8.14000, 2.0
8.18000, 3.0
8.22000, 3.0
8.26000, 2.0
8.30000, 3.0
8.34000, 1.0
8.38000, 2.0
8.42000, 2.0
8.46000, 4.0
8.50000, 2.0
8.54000, 2.0
8.58000, 1.0
8.62000, 2.0
8.66000, 3.0
8.70000, 4.0
8.74000, 2.0
8.78000, 2.0
8.82000, 1.0
8.86000, 3.0
8.90000, 2.0
8.94000, 2.0
8.98000, 3.0
9.02000, 2.0
9.06000, 1.0
9.10000, 0.0
9.14000, 1.0
9.18000, 3.0
9.22000, 1.0
9.26000, 2.0
9.30000, 3.0
9.34000, 0.0
9.38000, 2.0
9.42000, 2.0
9.46000, 0.0
9.50000, 1.0
9.54000, 1.0
9.58000, 0.0
9.62000, 1.0
9.66000, 1.0
9.70000, 1.0
9.74000, 1.0
9.78000, 0.0
9.82000, 1.0
9.86000, 1.0
9.90000, 1.0
9.94000, 0.0
9.98000, 1.0
10.02000, 0.0
10.06000, 0.0
10.10000, 0.0
10.13000, 0.0
#ENDOFDATA   :