Folder: Sommarjobb-2024/Spectras 300724 (part 2)

File: B15_15k_310724_1.txt
#FORMAT      : EMSA/MAS Spectral Data File
#VERSION     : 1.0
#TITLE       : B15_15k_310724_1
#DATE        : 30-JUL-2024
#TIME        : 09:50
#OWNER       :
#NPOINTS     : 1024.0
#NCOLUMNS    : 1.0
#XUNITS      : keV
#YUNITS      : counts
#DATATYPE    : XY
#XPERCHAN    : 0.02
#OFFSET      : -0.2
#SIGNALTYPE  : EDS
#CHOFFSET    : 10.0
#LIVETIME    : 60.0859
#REALTIME    : 60.9696
#BEAMKV      : 15.0
#MAGCAM      : 12000.0
#XTILTSTGE   : 0.0
#AZIMANGLE   : 0.0
#ELEVANGLE   : 25.5
#XPOSITION mm: -1.6963
#YPOSITION mm: -1.4368
#ZPOSITION mm: 13.7246
##OXINSTPT   : 2
##OXINSTSTROB: 69.69
##OXINSTELEMS: 6,8,29,79,78,14
##OXINSTLABEL: 6, 0.277, C K?1_2
##OXINSTLABEL: 8, 0.525, O K?1
##OXINSTLABEL: 29, 8.048, Cu K?1
##OXINSTLABEL: 29, 8.905, Cu K?1
##OXINSTLABEL: 29, 0.930, Cu L?1,2
##OXINSTLABEL: 29, 0.832, Cu L?
##OXINSTLABEL: 29, 0.811, Cu Ll
##OXINSTLABEL: 79, 9.713, Au L?1
##OXINSTLABEL: 79, 11.443, Au L?1
##OXINSTLABEL: 79, 11.585, Au L?2
##OXINSTLABEL: 79, 10.308, Au L?
##OXINSTLABEL: 79, 13.382, Au L?1
##OXINSTLABEL: 79, 13.710, Au L?2
##OXINSTLABEL: 79, 8.494, Au Ll
##OXINSTLABEL: 79, 2.123, Au M?1
##OXINSTLABEL: 79, 2.410, Au M?
##OXINSTLABEL: 79, 1.648, Au M?2
##OXINSTLABEL: 79, 0.265, Au N4-N6
##OXINSTLABEL: 79, 0.251, Au N5-N6,7
##OXINSTLABEL: 78, 9.442, Pt L?1
##OXINSTLABEL: 78, 11.071, Pt L?1
##OXINSTLABEL: 78, 11.251, Pt L?2
##OXINSTLABEL: 78, 9.975, Pt L?
##OXINSTLABEL: 78, 12.942, Pt L?1
##OXINSTLABEL: 78, 13.271, Pt L?2
##OXINSTLABEL: 78, 8.268, Pt Ll
##OXINSTLABEL: 78, 2.050, Pt M?1
##OXINSTLABEL: 78, 2.331, Pt M?
##OXINSTLABEL: 78, 1.592, Pt M?2
##OXINSTLABEL: 78, 0.258, Pt N4-N6
##OXINSTLABEL: 78, 0.244, Pt N5-N6,7
##OXINSTLABEL: 14, 1.740, Si K?1
#SPECTRUM    : Spectral Data Starts Here
-0.20000, 0.0
-0.12000, 0.0
-0.04000, 287.0
0.04000, 5111.0
0.12000, 526.0
0.20000, 141.0
0.28000, 281.0
0.36000, 52.0
0.44000, 111.0
0.52000, 766.0
0.60000, 132.0
0.68000, 70.0
0.76000, 82.0
0.84000, 102.0
0.92000, 134.0
1.00000, 143.0
1.08000, 175.0
1.16000, 162.0
1.24000, 205.0
1.32000, 210.0
1.40000, 201.0
1.48000, 224.0
1.56000, 233.0
1.64000, 1081.0
1.72000, 14848.0
1.80000, 7323.0
1.88000, 593.0
1.96000, 105.0
2.04000, 93.0
2.12000, 86.0
2.20000, 160.0
2.28000, 879.0
2.36000, 684.0
2.44000, 238.0
2.52000, 133.0
2.60000, 74.0
2.68000, 64.0
2.76000, 70.0
2.84000, 69.0
2.92000, 56.0
3.00000, 65.0
3.08000, 65.0
3.16000, 71.0
3.24000, 63.0
3.32000, 68.0
3.40000, 71.0
3.48000, 59.0
3.56000, 55.0
3.64000, 50.0
3.72000, 53.0
3.80000, 48.0
3.88000, 49.0
3.96000, 57.0
4.04000, 49.0
4.12000, 46.0
4.20000, 46.0
4.28000, 46.0
4.36000, 45.0
4.44000, 42.0
4.52000, 42.0
4.60000, 39.0
4.68000, 36.0
4.76000, 41.0
4.84000, 43.0
4.92000, 32.0
5.00000, 35.0
5.08000, 48.0
5.16000, 33.0
5.24000, 40.0
5.32000, 42.0
5.40000, 39.0
5.48000, 31.0
5.56000, 32.0
5.64000, 33.0
5.72000, 30.0
5.80000, 25.0
5.88000, 29.0
5.96000, 24.0
6.04000, 32.0
6.12000, 26.0
6.20000, 30.0
6.28000, 27.0
6.36000, 26.0
6.44000, 26.0
6.52000, 20.0
6.60000, 22.0
6.68000, 28.0
6.76000, 25.0
6.84000, 20.0
6.92000, 27.0
7.00000, 21.0
7.08000, 21.0
7.16000, 19.0
7.24000, 20.0
7.32000, 23.0
7.40000, 16.0
7.48000, 18.0
7.56000, 22.0
7.64000, 19.0
7.72000, 11.0
7.80000, 13.0
7.88000, 18.0
7.96000, 21.0
8.04000, 15.0
8.12000, 15.0
8.20000, 18.0
8.28000, 12.0
8.36000, 14.0
8.44000, 15.0
8.52000, 15.0
8.60000, 13.0
8.68000, 12.0
8.76000, 12.0
8.84000, 13.0
8.92000, 7.0
9.00000, 16.0
9.08000, 12.0
9.16000, 9.0
9.24000, 15.0
9.32000, 16.0
9.40000, 11.0
9.48000, 11.0
9.56000, 8.0
9.64000, 10.0
9.72000, 13.0
9.80000, 13.0
9.88000, 8.0
9.96000, 9.0
10.04000, 8.0
10.12000, 8.0
10.20000, 11.0
10.28000, 8.0
10.36000, 11.0
10.44000, 10.0
10.52000, 5.0
10.60000, 8.0
10.68000, 7.0
10.76000, 5.0
10.84000, 7.0
10.92000, 9.0
11.00000, 5.0
11.08000, 6.0
11.16000, 4.0
11.24000, 4.0
11.32000, 9.0
11.40000, 6.0
11.48000, 7.0
11.56000, 9.0
11.64000, 6.0
11.72000, 5.0
11.80000, 4.0
11.88000, 2.0
11.96000, 3.0
12.04000, 4.0
12.12000, 2.0
12.20000, 1.0
12.28000, 4.0
12.36000, 3.0
12.44000, 4.0
12.52000, 5.0
12.60000, 3.0
12.68000, 3.0
12.76000, 3.0
12.84000, 3.0
12.92000, 3.0
13.00000, 4.0
13.08000, 2.0
13.16000, 3.0
13.24000, 3.0
13.32000, 2.0
13.40000, 3.0
13.48000, 1.0
13.56000, 1.0
13.64000, 0.0
13.72000, 2.0
13.80000, 0.0
13.88000, 1.0
13.96000, 1.0
14.04000, 1.0
14.12000, 0.0
14.20000, 1.0
14.28000, 2.0
14.36000, 1.0
14.44000, 0.0
14.52000, 0.0
14.60000, 0.0
14.68000, 0.0
14.76000, 1.0
14.84000, 1.0
14.92000, 0.0
15.00000, 0.0
15.08000, 0.0
15.16000, 0.0
15.24000, 0.0
15.32000, 0.0
15.40000, 0.0
15.48000, 0.0
15.56000, 0.0
15.64000, 0.0
15.72000, 0.0
15.80000, 0.0
15.88000, 0.0
15.96000, 0.0
16.04000, 0.0
16.12000, 0.0
16.20000, 0.0
16.28000, 0.0
16.36000, 0.0
16.44000, 0.0
16.52000, 0.0
16.60000, 0.0
16.68000, 0.0
16.76000, 0.0
16.84000, 0.0
16.92000, 0.0
17.00000, 0.0
17.08000, 0.0
17.16000, 0.0
17.24000, 0.0
17.32000, 0.0
17.40000, 0.0
17.48000, 0.0
17.56000, 0.0
17.64000, 0.0
17.72000, 0.0
17.80000, 0.0
17.88000, 0.0
17.96000, 0.0
18.04000, 0.0
18.12000, 0.0
18.20000, 0.0
18.28000, 0.0
18.36000, 0.0
18.44000, 0.0
18.52000, 0.0
18.60000, 0.0
18.68000, 0.0
18.76000, 0.0
18.84000, 0.0
18.92000, 0.0
19.00000, 0.0
19.08000, 0.0
19.16000, 0.0
19.24000, 0.0
19.32000, 0.0
19.40000, 0.0
19.48000, 0.0
19.56000, 0.0
19.64000, 0.0
19.72000, 0.0
19.80000, 0.0
19.88000, 0.0
19.96000, 0.0
20.04000, 0.0
20.12000, 0.0
20.20000, 0.0
20.26000, 0.0
#ENDOFDATA   :

File: C10A2_10k_310724_Area_1.txt
#FORMAT      : EMSA/MAS Spectral Data File
#VERSION     : 1.0
#TITLE       : C10A2_10k_310724_Area_1
#DATE        : 30-JUL-2024
#TIME        : 10:42
#OWNER       :
#NPOINTS     : 2048.0
#NCOLUMNS    : 1.0
#XUNITS      : keV
#YUNITS      : counts
#DATATYPE    : XY
#XPERCHAN    : 0.005
#OFFSET      : -0.1
#SIGNALTYPE  : EDS
#CHOFFSET    : 20.0
#LIVETIME    : 60.0396
#REALTIME    : 60.6597
#BEAMKV      : 10.0
#MAGCAM      : 5000.0
#XTILTSTGE   : 0.0
#AZIMANGLE   : 0.0
#ELEVANGLE   : 25.5
#XPOSITION mm: -0.4063
#YPOSITION mm: -1.2208
#ZPOSITION mm: 13.8600
##OXINSTPT   : 2
##OXINSTSTROB: 69.70
##OXINSTELEMS: 6,8,29,79,78,14
##OXINSTLABEL: 6, 0.277, C K?1_2
##OXINSTLABEL: 8, 0.525, O K?1
##OXINSTLABEL: 29, 8.048, Cu K?1
##OXINSTLABEL: 29, 8.905, Cu K?1
##OXINSTLABEL: 29, 0.930, Cu L?1,2
##OXINSTLABEL: 29, 0.832, Cu L?
##OXINSTLABEL: 29, 0.811, Cu Ll
##OXINSTLABEL: 79, 9.713, Au L?1
##OXINSTLABEL: 79, 8.494, Au Ll
##OXINSTLABEL: 79, 2.123, Au M?1
##OXINSTLABEL: 79, 2.410, Au M?
##OXINSTLABEL: 79, 1.648, Au M?2
##OXINSTLABEL: 79, 0.265, Au N4-N6
##OXINSTLABEL: 79, 0.251, Au N5-N6,7
##OXINSTLABEL: 78, 9.442, Pt L?1
##OXINSTLABEL: 78, 9.975, Pt L?
##OXINSTLABEL: 78, 8.268, Pt Ll
##OXINSTLABEL: 78, 2.050, Pt M?1
##OXINSTLABEL: 78, 2.331, Pt M?
##OXINSTLABEL: 78, 1.592, Pt M?2
##OXINSTLABEL: 78, 0.258, Pt N4-N6
##OXINSTLABEL: 78, 0.244, Pt N5-N6,7
##OXINSTLABEL: 14, 1.740, Si K?1
#SPECTRUM    : Spectral Data Starts Here
-0.10000, 0.0
-0.06500, 4.0
-0.03000, 117.0
0.00500, 678.0
0.04000, 1379.0
0.07500, 878.0
0.11000, 184.0
0.14500, 65.0
0.18000, 69.0
0.21500, 53.0
0.25000, 82.0
0.28500, 85.0
0.32000, 48.0
0.35500, 16.0
0.39000, 18.0
0.42500, 23.0
0.46000, 55.0
0.49500, 163.0
0.53000, 242.0
0.56500, 130.0
0.60000, 39.0
0.63500, 21.0
0.67000, 13.0
0.70500, 18.0
0.74000, 26.0
0.77500, 29.0
0.81000, 26.0
0.84500, 27.0
0.88000, 37.0
0.91500, 26.0
0.95000, 31.0
0.98500, 37.0
1.02000, 29.0
1.05500, 39.0
1.09000, 36.0
1.12500, 23.0
1.16000, 34.0
1.19500, 31.0
1.23000, 44.0
1.26500, 38.0
1.30000, 34.0
1.33500, 29.0
1.37000, 35.0
1.40500, 36.0
1.44000, 37.0
1.47500, 39.0
1.51000, 38.0
1.54500, 31.0
1.58000, 37.0
1.61500, 41.0
1.65000, 146.0
1.68500, 559.0
1.72000, 1319.0
1.75500, 1510.0
1.79000, 847.0
1.82500, 276.0
1.86000, 100.0
1.89500, 51.0
1.93000, 26.0
1.96500, 26.0
2.00000, 26.0
2.03500, 21.0
2.07000, 27.0
2.10500, 26.0
2.14000, 26.0
2.17500, 22.0
2.21000, 57.0
2.24500, 152.0
2.28000, 285.0
2.31500, 367.0
2.35000, 259.0
2.38500, 147.0
2.42000, 100.0
2.45500, 68.0
2.49000, 44.0
2.52500, 35.0
2.56000, 22.0
2.59500, 11.0
2.63000, 18.0
2.66500, 13.0
2.70000, 16.0
2.73500, 15.0
2.77000, 14.0
2.80500, 10.0
2.84000, 13.0
2.87500, 13.0
2.91000, 16.0
2.94500, 18.0
2.98000, 11.0
3.01500, 13.0
3.05000, 10.0
3.08500, 11.0
3.12000, 10.0
3.15500, 13.0
3.19000, 8.0
3.22500, 14.0
3.26000, 6.0
3.29500, 14.0
3.33000, 4.0
3.36500, 10.0
3.40000, 11.0
3.43500, 12.0
3.47000, 13.0
3.50500, 16.0
3.54000, 10.0
3.57500, 10.0
3.61000, 13.0
3.64500, 9.0
3.68000, 16.0
3.71500, 8.0
3.75000, 9.0
3.78500, 11.0
3.82000, 11.0
3.85500, 7.0
3.89000, 9.0
3.92500, 6.0
3.96000, 14.0
3.99500, 7.0
4.03000, 10.0
4.06500, 10.0
4.10000, 4.0
4.13500, 9.0
4.17000, 7.0
4.20500, 10.0
4.24000, 6.0
4.27500, 4.0
4.31000, 5.0
4.34500, 6.0
4.38000, 6.0
4.41500, 5.0
4.45000, 7.0
4.48500, 4.0
4.52000, 7.0
4.55500, 2.0
4.59000, 7.0
4.62500, 6.0
4.66000, 4.0
4.69500, 6.0
4.73000, 6.0
4.76500, 5.0
4.80000, 9.0
4.83500, 8.0
4.87000, 7.0
4.90500, 4.0
4.94000, 5.0
4.97500, 4.0
5.01000, 6.0
5.04500, 6.0
5.08000, 6.0
5.11500, 8.0
5.15000, 6.0
5.18500, 7.0
5.22000, 10.0
5.25500, 3.0
5.29000, 1.0
5.32500, 5.0
5.36000, 6.0
5.39500, 4.0
5.43000, 3.0
5.46500, 5.0
5.50000, 5.0
5.53500, 5.0
5.57000, 4.0
5.60500, 2.0
5.64000, 5.0
5.67500, 4.0
5.71000, 5.0
5.74500, 2.0
5.78000, 5.0
5.81500, 2.0
5.85000, 4.0
5.88500, 5.0
5.92000, 5.0
5.95500, 6.0
5.99000, 5.0
6.02500, 5.0
6.06000, 1.0
6.09500, 2.0
6.13000, 6.0
6.16500, 6.0
6.20000, 5.0
6.23500, 1.0
6.27000, 3.0
6.30500, 3.0
6.34000, 3.0
6.37500, 3.0
6.41000, 2.0
6.44500, 4.0
6.48000, 4.0
6.51500, 3.0
6.55000, 2.0
6.58500, 3.0
6.62000, 2.0
6.65500, 3.0
6.69000, 2.0
6.72500, 1.0
6.76000, 2.0
6.79500, 4.0
6.83000, 4.0
6.86500, 1.0
6.90000, 0.0
6.93500, 4.0
6.97000, 2.0
7.00500, 2.0
7.04000, 4.0
7.07500, 4.0
7.11000, 4.0
7.14500, 1.0
7.18000, 2.0
7.21500, 2.0
7.25000, 4.0
7.28500, 2.0
7.32000, 2.0
7.35500, 1.0
7.39000, 2.0
7.42500, 6.0
7.46000, 4.0
7.49500, 0.0
7.53000, 2.0
7.56500, 0.0
7.60000, 3.0
7.63500, 3.0
7.67000, 3.0
7.70500, 2.0
7.74000, 3.0
7.77500, 1.0
7.81000, 2.0
7.84500, 1.0
7.88000, 3.0
7.91500, 4.0
7.95000, 2.0
7.98500, 2.0
8.02000, 2.0
8.05500, 2.0
8.09000, 4.0
8.12500, 2.0
8.16000, 2.0
8.19500, 1.0
8.23000, 2.0
8.26500, 2.0
8.30000, 0.0
8.33500, 1.0
8.37000, 2.0
8.40500, 1.0
8.44000, 2.0
8.47500, 2.0
8.51000, 1.0
8.54500, 1.0
8.58000, 0.0
8.61500, 1.0
8.65000, 1.0
8.68500, 0.0
8.72000, 1.0
8.75500, 3.0
8.79000, 2.0
8.82500, 1.0
8.86000, 1.0
8.89500, 1.0
8.93000, 1.0
8.96500, 1.0
9.00000, 0.0
9.03500, 1.0
9.07000, 1.0
9.10500, 1.0
9.14000, 0.0
9.17500, 1.0
9.21000, 2.0
9.24500, 0.0
9.28000, 0.0
9.31500, 1.0
9.35000, 0.0
9.38500, 0.0
9.42000, 0.0
9.45500, 1.0
9.49000, 1.0
9.52500, 0.0
9.56000, 1.0
9.59500, 0.0
9.63000, 1.0
9.66500, 2.0
9.70000, 1.0
9.73500, 0.0
9.77000, 0.0
9.80500, 0.0
9.84000, 0.0
9.87500, 0.0
9.91000, 0.0
9.94500, 1.0
9.98000, 0.0
10.01500, 0.0
10.05000, 0.0
10.08500, 0.0
10.12000, 0.0
10.13500, 0.0
#ENDOFDATA   :

File: C10A2_10k_310724_Point_2.txt
#FORMAT      : EMSA/MAS Spectral Data File
#VERSION     : 1.0
#TITLE       : C10A2_10k_310724_Point_2
#DATE        : 30-JUL-2024
#TIME        : 10:49
#OWNER       :
#NPOINTS     : 2048.0
#NCOLUMNS    : 1.0
#XUNITS      : keV
#YUNITS      : counts
#DATATYPE    : XY
#XPERCHAN    : 0.005
#OFFSET      : -0.1
#SIGNALTYPE  : EDS
#CHOFFSET    : 20.0
#LIVETIME    : 60.0
#REALTIME    : 60.6479
#BEAMKV      : 10.0
#MAGCAM      : 5000.0
#XTILTSTGE   : 0.0
#AZIMANGLE   : 0.0
#ELEVANGLE   : 25.5
#XPOSITION mm: -0.4063
#YPOSITION mm: -1.2208
#ZPOSITION mm: 13.8600
##OXINSTPT   : 2
##OXINSTSTROB: 69.76
##OXINSTELEMS: 6,8,29,79,78,14
##OXINSTLABEL: 6, 0.277, C K?1_2
##OXINSTLABEL: 8, 0.525, O K?1
##OXINSTLABEL: 29, 8.048, Cu K?1
##OXINSTLABEL: 29, 8.905, Cu K?1
##OXINSTLABEL: 29, 0.930, Cu L?1,2
##OXINSTLABEL: 29, 0.832, Cu L?
##OXINSTLABEL: 29, 0.811, Cu Ll
##OXINSTLABEL: 79, 9.713, Au L?1
##OXINSTLABEL: 79, 8.494, Au Ll
##OXINSTLABEL: 79, 2.123, Au M?1
##OXINSTLABEL: 79, 2.410, Au M?
##OXINSTLABEL: 79, 1.648, Au M?2
##OXINSTLABEL: 79, 0.265, Au N4-N6
##OXINSTLABEL: 79, 0.251, Au N5-N6,7
##OXINSTLABEL: 78, 9.442, Pt L?1
##OXINSTLABEL: 78, 9.975, Pt L?
##OXINSTLABEL: 78, 8.268, Pt Ll
##OXINSTLABEL: 78, 2.050, Pt M?1
##OXINSTLABEL: 78, 2.331, Pt M?
##OXINSTLABEL: 78, 1.592, Pt M?2
##OXINSTLABEL: 78, 0.258, Pt N4-N6
##OXINSTLABEL: 78, 0.244, Pt N5-N6,7
##OXINSTLABEL: 14, 1.740, Si K?1
#SPECTRUM    : Spectral Data Starts Here
-0.10000, 0.0
-0.06500, 9.0
-0.03000, 101.0
0.00500, 664.0
0.04000, 1314.0
0.07500, 882.0
0.11000, 186.0
0.14500, 59.0
0.18000, 63.0
0.21500, 44.0
0.25000, 74.0
0.28500, 61.0
0.32000, 28.0
0.35500, 15.0
0.39000, 16.0
0.42500, 21.0
0.46000, 62.0
0.49500, 178.0
0.53000, 223.0
0.56500, 116.0
0.60000, 37.0
0.63500, 22.0
0.67000, 20.0
0.70500, 26.0
0.74000, 25.0
0.77500, 21.0
0.81000, 27.0
0.84500, 30.0
0.88000, 31.0
0.91500, 32.0
0.95000, 30.0
0.98500, 39.0
1.02000, 35.0
1.05500, 31.0
1.09000, 34.0
1.12500, 39.0
1.16000, 26.0
1.19500, 37.0
1.23000, 33.0
1.26500, 27.0
1.30000, 41.0
1.33500, 31.0
1.37000, 42.0
1.40500, 29.0
1.44000, 39.0
1.47500, 28.0
1.51000, 27.0
1.54500, 33.0
1.58000, 30.0
1.61500, 44.0
1.65000, 152.0
1.68500, 615.0
1.72000, 1337.0
1.75500, 1487.0
1.79000, 833.0
1.82500, 271.0
1.86000, 112.0
1.89500, 48.0
1.93000, 27.0
1.96500, 23.0
2.00000, 30.0
2.03500, 29.0
2.07000, 31.0
2.10500, 20.0
2.14000, 22.0
2.17500, 22.0
2.21000, 58.0
2.24500, 163.0
2.28000, 330.0
2.31500, 386.0
2.35000, 257.0
2.38500, 146.0
2.42000, 107.0
2.45500, 81.0
2.49000, 47.0
2.52500, 27.0
2.56000, 25.0
2.59500, 14.0
2.63000, 17.0
2.66500, 17.0
2.70000, 18.0
2.73500, 11.0
2.77000, 13.0
2.80500, 12.0
2.84000, 17.0
2.87500, 16.0
2.91000, 10.0
2.94500, 22.0
2.98000, 10.0
3.01500, 10.0
3.05000, 15.0
3.08500, 18.0
3.12000, 8.0
3.15500, 8.0
3.19000, 10.0
3.22500, 17.0
3.26000, 10.0
3.29500, 17.0
3.33000, 10.0
3.36500, 9.0
3.40000, 7.0
3.43500, 9.0
3.47000, 7.0
3.50500, 14.0
3.54000, 18.0
3.57500, 12.0
3.61000, 15.0
3.64500, 8.0
3.68000, 8.0
3.71500, 8.0
3.75000, 5.0
3.78500, 14.0
3.82000, 8.0
3.85500, 7.0
3.89000, 5.0
3.92500, 12.0
3.96000, 7.0
3.99500, 9.0
4.03000, 7.0
4.06500, 6.0
4.10000, 11.0
4.13500, 11.0
4.17000, 6.0
4.20500, 11.0
4.24000, 6.0
4.27500, 10.0
4.31000, 6.0
4.34500, 12.0
4.38000, 9.0
4.41500, 10.0
4.45000, 9.0
4.48500, 8.0
4.52000, 9.0
4.55500, 5.0
4.59000, 6.0
4.62500, 7.0
4.66000, 4.0
4.69500, 8.0
4.73000, 7.0
4.76500, 8.0
4.80000, 6.0
4.83500, 5.0
4.87000, 4.0
4.90500, 3.0
4.94000, 8.0
4.97500, 4.0
5.01000, 4.0
5.04500, 6.0
5.08000, 8.0
5.11500, 4.0
5.15000, 6.0
5.18500, 5.0
5.22000, 5.0
5.25500, 7.0
5.29000, 4.0
5.32500, 7.0
5.36000, 5.0
5.39500, 3.0
5.43000, 6.0
5.46500, 4.0
5.50000, 6.0
5.53500, 6.0
5.57000, 5.0
5.60500, 4.0
5.64000, 4.0
5.67500, 4.0
5.71000, 4.0
5.74500, 4.0
5.78000, 2.0
5.81500, 4.0
5.85000, 5.0
5.88500, 3.0
5.92000, 3.0
5.95500, 1.0
5.99000, 5.0
6.02500, 6.0
6.06000, 4.0
6.09500, 4.0
6.13000, 3.0
6.16500, 4.0
6.20000, 3.0
6.23500, 3.0
6.27000, 6.0
6.30500, 4.0
6.34000, 4.0
6.37500, 4.0
6.41000, 4.0
6.44500, 3.0
6.48000, 4.0
6.51500, 4.0
6.55000, 3.0
6.58500, 3.0
6.62000, 1.0
6.65500, 2.0
6.69000, 1.0
6.72500, 1.0
6.76000, 2.0
6.79500, 4.0
6.83000, 2.0
6.86500, 3.0
6.90000, 3.0
6.93500, 3.0
6.97000, 3.0
7.00500, 4.0
7.04000, 5.0
7.07500, 3.0
7.11000, 2.0
7.14500, 4.0
7.18000, 3.0
7.21500, 2.0
7.25000, 4.0
7.28500, 3.0
7.32000, 2.0
7.35500, 3.0
7.39000, 2.0
7.42500, 2.0
7.46000, 2.0
7.49500, 1.0
7.53000, 2.0
7.56500, 3.0
7.60000, 0.0
7.63500, 3.0
7.67000, 3.0
7.70500, 3.0
7.74000, 1.0
7.77500, 4.0
7.81000, 4.0
7.84500, 1.0
7.88000, 2.0
7.91500, 3.0
7.95000, 1.0
7.98500, 1.0
8.02000, 2.0
8.05500, 1.0
8.09000, 3.0
8.12500, 3.0
8.16000, 1.0
8.19500, 2.0
8.23000, 5.0
8.26500, 0.0
8.30000, 2.0
8.33500, 5.0
8.37000, 1.0
8.40500, 2.0
8.44000, 3.0
8.47500, 1.0
8.51000, 1.0
8.54500, 2.0
8.58000, 1.0
8.61500, 0.0
8.65000, 1.0
8.68500, 1.0
8.72000, 2.0
8.75500, 0.0
8.79000, 3.0
8.82500, 2.0
8.86000, 0.0
8.89500, 0.0
8.93000, 2.0
8.96500, 3.0
9.00000, 1.0
9.03500, 0.0
9.07000, 0.0
9.10500, 0.0
9.14000, 0.0
9.17500, 0.0
9.21000, 1.0
9.24500, 0.0
9.28000, 4.0
9.31500, 1.0
9.35000, 0.0
9.38500, 2.0
9.42000, 0.0
9.45500, 0.0
9.49000, 1.0
9.52500, 0.0
9.56000, 2.0
9.59500, 1.0
9.63000, 0.0
9.66500, 0.0
9.70000, 0.0
9.73500, 0.0
9.77000, 0.0
9.80500, 1.0
9.84000, 0.0
9.87500, 0.0
9.91000, 0.0
9.94500, 0.0
9.98000, 0.0
10.01500, 1.0
10.05000, 0.0
10.08500, 0.0
10.12000, 0.0
10.13500, 0.0
#ENDOFDATA   :

File: C10A2_10k_310724_Point_5.txt
#FORMAT      : EMSA/MAS Spectral Data File
#VERSION     : 1.0
#TITLE       : C10A2_10k_310724_Point_5
#DATE        : 30-JUL-2024
#TIME        : 10:52
#OWNER       :
#NPOINTS     : 2048.0
#NCOLUMNS    : 1.0
#XUNITS      : keV
#YUNITS      : counts
#DATATYPE    : XY
#XPERCHAN    : 0.005
#OFFSET      : -0.1
#SIGNALTYPE  : EDS
#CHOFFSET    : 20.0
#LIVETIME    : 60.0
#REALTIME    : 60.69
#BEAMKV      : 10.0
#MAGCAM      : 5000.0
#XTILTSTGE   : 0.0
#AZIMANGLE   : 0.0
#ELEVANGLE   : 25.5
#XPOSITION mm: -0.4063
#YPOSITION mm: -1.2208
#ZPOSITION mm: 13.8600
##OXINSTPT   : 2
##OXINSTSTROB: 69.75
##OXINSTELEMS: 6,8,29,79,78,14
##OXINSTLABEL: 6, 0.277, C K?1_2
##OXINSTLABEL: 8, 0.525, O K?1
##OXINSTLABEL: 29, 8.048, Cu K?1
##OXINSTLABEL: 29, 8.905, Cu K?1
##OXINSTLABEL: 29, 0.930, Cu L?1,2
##OXINSTLABEL: 29, 0.832, Cu L?
##OXINSTLABEL: 29, 0.811, Cu Ll
##OXINSTLABEL: 79, 9.713, Au L?1
##OXINSTLABEL: 79, 8.494, Au Ll
##OXINSTLABEL: 79, 2.123, Au M?1
##OXINSTLABEL: 79, 2.410, Au M?
##OXINSTLABEL: 79, 1.648, Au M?2
##OXINSTLABEL: 79, 0.265, Au N4-N6
##OXINSTLABEL: 79, 0.251, Au N5-N6,7
##OXINSTLABEL: 78, 9.442, Pt L?1
##OXINSTLABEL: 78, 9.975, Pt L?
##OXINSTLABEL: 78, 8.268, Pt Ll
##OXINSTLABEL: 78, 2.050, Pt M?1
##OXINSTLABEL: 78, 2.331, Pt M?
##OXINSTLABEL: 78, 1.592, Pt M?2
##OXINSTLABEL: 78, 0.258, Pt N4-N6
##OXINSTLABEL: 78, 0.244, Pt N5-N6,7
##OXINSTLABEL: 14, 1.740, Si K?1
#SPECTRUM    : Spectral Data Starts Here
-0.10000, 0.0
-0.06500, 3.0
-0.03000, 107.0
0.00500, 665.0
0.04000, 1330.0
0.07500, 888.0
0.11000, 210.0
0.14500, 66.0
0.18000, 63.0
0.21500, 80.0
0.25000, 186.0
0.28500, 228.0
0.32000, 93.0
0.35500, 33.0
0.39000, 31.0
0.42500, 36.0
0.46000, 133.0
0.49500, 417.0
0.53000, 544.0
0.56500, 259.0
0.60000, 67.0
0.63500, 29.0
0.67000, 31.0
0.70500, 29.0
0.74000, 32.0
0.77500, 36.0
0.81000, 33.0
0.84500, 43.0
0.88000, 41.0
0.91500, 30.0
0.95000, 38.0
0.98500, 39.0
1.02000, 40.0
1.05500, 47.0
1.09000, 35.0
1.12500, 46.0
1.16000, 37.0
1.19500, 31.0
1.23000, 39.0
1.26500, 36.0
1.30000, 41.0
1.33500, 34.0
1.37000, 40.0
1.40500, 30.0
1.44000, 43.0
1.47500, 42.0
1.51000, 39.0
1.54500, 36.0
1.58000, 40.0
1.61500, 51.0
1.65000, 184.0
1.68500, 678.0
1.72000, 1568.0
1.75500, 1737.0
1.79000, 952.0
1.82500, 349.0
1.86000, 110.0
1.89500, 50.0
1.93000, 23.0
1.96500, 30.0
2.00000, 25.0
2.03500, 28.0
2.07000, 22.0
2.10500, 22.0
2.14000, 23.0
2.17500, 23.0
2.21000, 59.0
2.24500, 172.0
2.28000, 298.0
2.31500, 368.0
2.35000, 274.0
2.38500, 150.0
2.42000, 93.0
2.45500, 74.0
2.49000, 48.0
2.52500, 36.0
2.56000, 24.0
2.59500, 22.0
2.63000, 18.0
2.66500, 14.0
2.70000, 7.0
2.73500, 16.0
2.77000, 10.0
2.80500, 12.0
2.84000, 18.0
2.87500, 11.0
2.91000, 15.0
2.94500, 14.0
2.98000, 19.0
3.01500, 4.0
3.05000, 14.0
3.08500, 13.0
3.12000, 10.0
3.15500, 10.0
3.19000, 14.0
3.22500, 8.0
3.26000, 16.0
3.29500, 10.0
3.33000, 9.0
3.36500, 15.0
3.40000, 6.0
3.43500, 9.0
3.47000, 15.0
3.50500, 7.0
3.54000, 8.0
3.57500, 11.0
3.61000, 6.0
3.64500, 13.0
3.68000, 8.0
3.71500, 8.0
3.75000, 7.0
3.78500, 11.0
3.82000, 8.0
3.85500, 6.0
3.89000, 13.0
3.92500, 16.0
3.96000, 10.0
3.99500, 3.0
4.03000, 6.0
4.06500, 13.0
4.10000, 11.0
4.13500, 10.0
4.17000, 9.0
4.20500, 10.0
4.24000, 6.0
4.27500, 6.0
4.31000, 12.0
4.34500, 8.0
4.38000, 5.0
4.41500, 5.0
4.45000, 8.0
4.48500, 9.0
4.52000, 8.0
4.55500, 6.0
4.59000, 7.0
4.62500, 7.0
4.66000, 8.0
4.69500, 9.0
4.73000, 8.0
4.76500, 7.0
4.80000, 8.0
4.83500, 5.0
4.87000, 4.0
4.90500, 5.0
4.94000, 5.0
4.97500, 6.0
5.01000, 5.0
5.04500, 6.0
5.08000, 3.0
5.11500, 7.0
5.15000, 4.0
5.18500, 4.0
5.22000, 5.0
5.25500, 5.0
5.29000, 4.0
5.32500, 3.0
5.36000, 5.0
5.39500, 5.0
5.43000, 4.0
5.46500, 8.0
5.50000, 6.0
5.53500, 4.0
5.57000, 5.0
5.60500, 5.0
5.64000, 5.0
5.67500, 4.0
5.71000, 4.0
5.74500, 4.0
5.78000, 2.0
5.81500, 4.0
5.85000, 3.0
5.88500, 3.0
5.92000, 4.0
5.95500, 2.0
5.99000, 3.0
6.02500, 4.0
6.06000, 3.0
6.09500, 2.0
6.13000, 4.0
6.16500, 7.0
6.20000, 4.0
6.23500, 3.0
6.27000, 3.0
6.30500, 3.0
6.34000, 3.0
6.37500, 3.0
6.41000, 7.0
6.44500, 4.0
6.48000, 3.0
6.51500, 4.0
6.55000, 4.0
6.58500, 5.0
6.62000, 5.0
6.65500, 2.0
6.69000, 3.0
6.72500, 6.0
6.76000, 3.0
6.79500, 3.0
6.83000, 2.0
6.86500, 2.0
6.90000, 3.0
6.93500, 3.0
6.97000, 1.0
7.00500, 3.0
7.04000, 4.0
7.07500, 4.0
7.11000, 2.0
7.14500, 2.0
7.18000, 2.0
7.21500, 2.0
7.25000, 2.0
7.28500, 2.0
7.32000, 1.0
7.35500, 5.0
7.39000, 0.0
7.42500, 1.0
7.46000, 2.0
7.49500, 0.0
7.53000, 4.0
7.56500, 3.0
7.60000, 2.0
7.63500, 2.0
7.67000, 1.0
7.70500, 2.0
7.74000, 3.0
7.77500, 5.0
7.81000, 2.0
7.84500, 2.0
7.88000, 0.0
7.91500, 1.0
7.95000, 0.0
7.98500, 2.0
8.02000, 1.0
8.05500, 1.0
8.09000, 3.0
8.12500, 2.0
8.16000, 3.0
8.19500, 1.0
8.23000, 2.0
8.26500, 2.0
8.30000, 3.0
8.33500, 1.0
8.37000, 0.0
8.40500, 3.0
8.44000, 1.0
8.47500, 1.0
8.51000, 1.0
8.54500, 3.0
8.58000, 0.0
8.61500, 1.0
8.65000, 1.0
8.68500, 1.0
8.72000, 0.0
8.75500, 1.0
8.79000, 1.0
8.82500, 3.0
8.86000, 1.0
8.89500, 3.0
8.93000, 2.0
8.96500, 1.0
9.00000, 2.0
9.03500, 1.0
9.07000, 1.0
9.10500, 0.0
9.14000, 0.0
9.17500, 2.0
9.21000, 0.0
9.24500, 4.0
9.28000, 0.0
9.31500, 2.0
9.35000, 0.0
9.38500, 0.0
9.42000, 0.0
9.45500, 3.0
9.49000, 0.0
9.52500, 2.0
9.56000, 2.0
9.59500, 0.0
9.63000, 0.0
9.66500, 0.0
9.70000, 0.0
9.73500, 1.0
9.77000, 1.0
9.80500, 2.0
9.84000, 0.0
9.87500, 0.0
9.91000, 0.0
9.94500, 0.0
9.98000, 0.0
10.01500, 0.0
10.05000, 0.0
10.08500, 0.0
10.12000, 0.0
10.13500, 0.0
#ENDOFDATA   :