Folder: Sommarjobb-2024/Spectras 20250424

File: 20250425_5K_C7.txt
#FORMAT      : EMSA/MAS Spectral Data File
#VERSION     : 1.0
#TITLE       : 20250425_5K_C7
#DATE        : 24-APR-2025
#TIME        : 10:45
#OWNER       :
#NPOINTS     : 2048.0
#NCOLUMNS    : 1.0
#XUNITS      : keV
#YUNITS      : counts
#DATATYPE    : XY
#XPERCHAN    : 0.005
#OFFSET      : -0.1
#SIGNALTYPE  : EDS
#CHOFFSET    : 20.0
#LIVETIME    : 60.0
#REALTIME    : 60.8151
#BEAMKV      : 5.0
#MAGCAM      : 450.0
#XTILTSTGE   : 0.0
#AZIMANGLE   : 0.0
#ELEVANGLE   : 29.0
#XPOSITION mm: 1.8150
#YPOSITION mm: -0.9613
#ZPOSITION mm: 13.4926
##OXINSTPT   : 2
##OXINSTSTROB: 67.58
#SPECTRUM    : Spectral Data Starts Here
-0.10000, 0.0
-0.06500, 2.0
-0.03000, 65.0
0.00500, 476.0
0.04000, 1117.0
0.07500, 844.0
0.11000, 474.0
0.14500, 812.0
0.18000, 806.0
0.21500, 418.0
0.25000, 215.0
0.28500, 151.0
0.32000, 102.0
0.35500, 87.0
0.39000, 107.0
0.42500, 124.0
0.46000, 132.0
0.49500, 191.0
0.53000, 227.0
0.56500, 200.0
0.60000, 183.0
0.63500, 171.0
0.67000, 191.0
0.70500, 192.0
0.74000, 181.0
0.77500, 189.0
0.81000, 207.0
0.84500, 191.0
0.88000, 227.0
0.91500, 197.0
0.95000, 217.0
0.98500, 174.0
1.02000, 213.0
1.05500, 212.0
1.09000, 188.0
1.12500, 181.0
1.16000, 188.0
1.19500, 175.0
1.23000, 178.0
1.26500, 181.0
1.30000, 168.0
1.33500, 175.0
1.37000, 146.0
1.40500, 149.0
1.44000, 135.0
1.47500, 146.0
1.51000, 143.0
1.54500, 144.0
1.58000, 145.0
1.61500, 138.0
1.65000, 135.0
1.68500, 169.0
1.72000, 206.0
1.75500, 218.0
1.79000, 162.0
1.82500, 123.0
1.86000, 110.0
1.89500, 108.0
1.93000, 96.0
1.96500, 108.0
2.00000, 137.0
2.03500, 120.0
2.07000, 121.0
2.10500, 104.0
2.14000, 109.0
2.17500, 114.0
2.21000, 287.0
2.24500, 894.0
2.28000, 1786.0
2.31500, 2099.0
2.35000, 1462.0
2.38500, 741.0
2.42000, 449.0
2.45500, 341.0
2.49000, 248.0
2.52500, 163.0
2.56000, 104.0
2.59500, 64.0
2.63000, 67.0
2.66500, 68.0
2.70000, 59.0
2.73500, 58.0
2.77000, 51.0
2.80500, 56.0
2.84000, 46.0
2.87500, 45.0
2.91000, 49.0
2.94500, 42.0
2.98000, 45.0
3.01500, 48.0
3.05000, 34.0
3.08500, 36.0
3.12000, 43.0
3.15500, 41.0
3.19000, 44.0
3.22500, 36.0
3.26000, 46.0
3.29500, 34.0
3.33000, 40.0
3.36500, 41.0
3.40000, 35.0
3.43500, 34.0
3.47000, 27.0
3.50500, 22.0
3.54000, 27.0
3.57500, 30.0
3.61000, 37.0
3.64500, 34.0
3.68000, 16.0
3.71500, 32.0
3.75000, 23.0
3.78500, 21.0
3.82000, 23.0
3.85500, 18.0
3.89000, 24.0
3.92500, 22.0
3.96000, 29.0
3.99500, 18.0
4.03000, 21.0
4.06500, 13.0
4.10000, 18.0
4.13500, 17.0
4.17000, 21.0
4.20500, 22.0
4.24000, 17.0
4.27500, 11.0
4.31000, 14.0
4.34500, 14.0
4.38000, 12.0
4.41500, 14.0
4.45000, 17.0
4.48500, 13.0
4.52000, 15.0
4.55500, 6.0
4.59000, 11.0
4.62500, 9.0
4.66000, 9.0
4.69500, 7.0
4.73000, 8.0
4.76500, 7.0
4.80000, 6.0
4.83500, 3.0
4.87000, 4.0
4.90500, 1.0
4.94000, 0.0
4.97500, 0.0
5.01000, 0.0
5.04500, 0.0
5.08000, 0.0
5.11500, 0.0
5.15000, 0.0
5.18500, 0.0
5.22000, 0.0
5.25500, 0.0
5.29000, 0.0
5.32500, 0.0
5.36000, 0.0
5.39500, 0.0
5.43000, 0.0
5.46500, 0.0
5.50000, 0.0
5.53500, 0.0
5.57000, 1.0
5.60500, 0.0
5.64000, 0.0
5.67500, 0.0
5.71000, 0.0
5.74500, 0.0
5.78000, 0.0
5.81500, 0.0
5.85000, 0.0
5.88500, 0.0
5.92000, 0.0
5.95500, 0.0
5.99000, 0.0
6.02500, 0.0
6.06000, 0.0
6.09500, 0.0
6.13000, 0.0
6.16500, 0.0
6.20000, 0.0
6.23500, 0.0
6.27000, 0.0
6.30500, 0.0
6.34000, 0.0
6.37500, 0.0
6.41000, 0.0
6.44500, 0.0
6.48000, 0.0
6.51500, 0.0
6.55000, 0.0
6.58500, 0.0
6.62000, 0.0
6.65500, 0.0
6.69000, 0.0
6.72500, 0.0
6.76000, 0.0
6.79500, 0.0
6.83000, 0.0
6.86500, 0.0
6.90000, 0.0
6.93500, 0.0
6.97000, 0.0
7.00500, 0.0
7.04000, 0.0
7.07500, 0.0
7.11000, 0.0
7.14500, 0.0
7.18000, 0.0
7.21500, 0.0
7.25000, 0.0
7.28500, 0.0
7.32000, 0.0
7.35500, 0.0
7.39000, 0.0
7.42500, 0.0
7.46000, 0.0
7.49500, 0.0
7.53000, 0.0
7.56500, 0.0
7.60000, 0.0
7.63500, 0.0
7.67000, 0.0
7.70500, 0.0
7.74000, 0.0
7.77500, 0.0
7.81000, 0.0
7.84500, 0.0
7.88000, 0.0
7.91500, 0.0
7.95000, 0.0
7.98500, 0.0
8.02000, 0.0
8.05500, 0.0
8.09000, 0.0
8.12500, 0.0
8.16000, 0.0
8.19500, 0.0
8.23000, 0.0
8.26500, 0.0
8.30000, 0.0
8.33500, 0.0
8.37000, 0.0
8.40500, 0.0
8.44000, 0.0
8.47500, 0.0
8.51000, 0.0
8.54500, 0.0
8.58000, 0.0
8.61500, 0.0
8.65000, 0.0
8.68500, 0.0
8.72000, 0.0
8.75500, 0.0
8.79000, 0.0
8.82500, 0.0
8.86000, 0.0
8.89500, 0.0
8.93000, 0.0
8.96500, 0.0
9.00000, 0.0
9.03500, 0.0
9.07000, 0.0
9.10500, 0.0
9.14000, 0.0
9.17500, 0.0
9.21000, 0.0
9.24500, 0.0
9.28000, 0.0
9.31500, 0.0
9.35000, 0.0
9.38500, 0.0
9.42000, 0.0
9.45500, 0.0
9.49000, 0.0
9.52500, 0.0
9.56000, 0.0
9.59500, 0.0
9.63000, 0.0
9.66500, 0.0
9.70000, 0.0
9.73500, 0.0
9.77000, 0.0
9.80500, 0.0
9.84000, 0.0
9.87500, 0.0
9.91000, 0.0
9.94500, 0.0
9.98000, 0.0
10.01500, 0.0
10.05000, 0.0
10.08500, 0.0
10.12000, 0.0
10.13500, 0.0
#ENDOFDATA   :

File: 20250425_5K_F1_Area2_4.txt
#FORMAT      : EMSA/MAS Spectral Data File
#VERSION     : 1.0
#TITLE       : 20250425_5K_F1_Area2_4
#DATE        : 24-APR-2025
#TIME        : 11:23
#OWNER       :
#NPOINTS     : 2048.0
#NCOLUMNS    : 1.0
#XUNITS      : keV
#YUNITS      : counts
#DATATYPE    : XY
#XPERCHAN    : 0.005
#OFFSET      : -0.1
#SIGNALTYPE  : EDS
#CHOFFSET    : 20.0
#LIVETIME    : 60.0
#REALTIME    : 60.7804
#BEAMKV      : 5.0
#MAGCAM      : 15000.0
#XTILTSTGE   : 0.0
#AZIMANGLE   : 0.0
#ELEVANGLE   : 29.0
#XPOSITION mm: -0.7335
#YPOSITION mm: 0.5740
#ZPOSITION mm: 13.5306
##OXINSTPT   : 2
##OXINSTSTROB: 67.51
#SPECTRUM    : Spectral Data Starts Here
-0.10000, 0.0
-0.06500, 3.0
-0.03000, 65.0
0.00500, 452.0
0.04000, 1050.0
0.07500, 758.0
0.11000, 184.0
0.14500, 65.0
0.18000, 72.0
0.21500, 91.0
0.25000, 164.0
0.28500, 134.0
0.32000, 98.0
0.35500, 84.0
0.39000, 125.0
0.42500, 274.0
0.46000, 1250.0
0.49500, 4201.0
0.53000, 5636.0
0.56500, 2577.0
0.60000, 452.0
0.63500, 101.0
0.67000, 81.0
0.70500, 95.0
0.74000, 107.0
0.77500, 93.0
0.81000, 92.0
0.84500, 103.0
0.88000, 96.0
0.91500, 102.0
0.95000, 90.0
0.98500, 110.0
1.02000, 108.0
1.05500, 100.0
1.09000, 91.0
1.12500, 89.0
1.16000, 88.0
1.19500, 92.0
1.23000, 83.0
1.26500, 77.0
1.30000, 72.0
1.33500, 66.0
1.37000, 79.0
1.40500, 68.0
1.44000, 88.0
1.47500, 75.0
1.51000, 76.0
1.54500, 68.0
1.58000, 87.0
1.61500, 82.0
1.65000, 215.0
1.68500, 820.0
1.72000, 1938.0
1.75500, 2230.0
1.79000, 1237.0
1.82500, 411.0
1.86000, 156.0
1.89500, 67.0
1.93000, 47.0
1.96500, 39.0
2.00000, 42.0
2.03500, 32.0
2.07000, 35.0
2.10500, 34.0
2.14000, 41.0
2.17500, 29.0
2.21000, 32.0
2.24500, 43.0
2.28000, 48.0
2.31500, 32.0
2.35000, 40.0
2.38500, 29.0
2.42000, 31.0
2.45500, 38.0
2.49000, 22.0
2.52500, 34.0
2.56000, 25.0
2.59500, 34.0
2.63000, 26.0
2.66500, 25.0
2.70000, 20.0
2.73500, 24.0
2.77000, 26.0
2.80500, 22.0
2.84000, 16.0
2.87500, 26.0
2.91000, 19.0
2.94500, 17.0
2.98000, 23.0
3.01500, 18.0
3.05000, 19.0
3.08500, 12.0
3.12000, 17.0
3.15500, 15.0
3.19000, 18.0
3.22500, 18.0
3.26000, 16.0
3.29500, 17.0
3.33000, 9.0
3.36500, 15.0
3.40000, 15.0
3.43500, 9.0
3.47000, 10.0
3.50500, 14.0
3.54000, 10.0
3.57500, 14.0
3.61000, 14.0
3.64500, 11.0
3.68000, 9.0
3.71500, 10.0
3.75000, 7.0
3.78500, 5.0
3.82000, 7.0
3.85500, 11.0
3.89000, 6.0
3.92500, 10.0
3.96000, 11.0
3.99500, 6.0
4.03000, 10.0
4.06500, 3.0
4.10000, 1.0
4.13500, 12.0
4.17000, 3.0
4.20500, 7.0
4.24000, 4.0
4.27500, 5.0
4.31000, 4.0
4.34500, 4.0
4.38000, 3.0
4.41500, 5.0
4.45000, 1.0
4.48500, 2.0
4.52000, 3.0
4.55500, 7.0
4.59000, 1.0
4.62500, 2.0
4.66000, 4.0
4.69500, 1.0
4.73000, 3.0
4.76500, 2.0
4.80000, 2.0
4.83500, 2.0
4.87000, 2.0
4.90500, 0.0
4.94000, 0.0
4.97500, 0.0
5.01000, 0.0
5.04500, 0.0
5.08000, 1.0
5.11500, 0.0
5.15000, 0.0
5.18500, 0.0
5.22000, 0.0
5.25500, 0.0
5.29000, 0.0
5.32500, 0.0
5.36000, 0.0
5.39500, 0.0
5.43000, 0.0
5.46500, 0.0
5.50000, 0.0
5.53500, 0.0
5.57000, 0.0
5.60500, 0.0
5.64000, 0.0
5.67500, 0.0
5.71000, 0.0
5.74500, 0.0
5.78000, 0.0
5.81500, 0.0
5.85000, 0.0
5.88500, 0.0
5.92000, 0.0
5.95500, 0.0
5.99000, 0.0
6.02500, 0.0
6.06000, 0.0
6.09500, 0.0
6.13000, 0.0
6.16500, 0.0
6.20000, 0.0
6.23500, 0.0
6.27000, 0.0
6.30500, 0.0
6.34000, 0.0
6.37500, 0.0
6.41000, 0.0
6.44500, 0.0
6.48000, 0.0
6.51500, 0.0
6.55000, 0.0
6.58500, 0.0
6.62000, 0.0
6.65500, 0.0
6.69000, 0.0
6.72500, 0.0
6.76000, 0.0
6.79500, 0.0
6.83000, 0.0
6.86500, 0.0
6.90000, 0.0
6.93500, 0.0
6.97000, 0.0
7.00500, 0.0
7.04000, 0.0
7.07500, 0.0
7.11000, 0.0
7.14500, 0.0
7.18000, 0.0
7.21500, 0.0
7.25000, 0.0
7.28500, 0.0
7.32000, 0.0
7.35500, 0.0
7.39000, 0.0
7.42500, 0.0
7.46000, 0.0
7.49500, 0.0
7.53000, 0.0
7.56500, 0.0
7.60000, 0.0
7.63500, 0.0
7.67000, 0.0
7.70500, 0.0
7.74000, 0.0
7.77500, 0.0
7.81000, 0.0
7.84500, 0.0
7.88000, 0.0
7.91500, 0.0
7.95000, 0.0
7.98500, 0.0
8.02000, 0.0
8.05500, 0.0
8.09000, 0.0
8.12500, 0.0
8.16000, 0.0
8.19500, 0.0
8.23000, 0.0
8.26500, 0.0
8.30000, 0.0
8.33500, 0.0
8.37000, 0.0
8.40500, 0.0
8.44000, 0.0
8.47500, 0.0
8.51000, 0.0
8.54500, 0.0
8.58000, 0.0
8.61500, 0.0
8.65000, 0.0
8.68500, 0.0
8.72000, 0.0
8.75500, 0.0
8.79000, 0.0
8.82500, 0.0
8.86000, 0.0
8.89500, 0.0
8.93000, 0.0
8.96500, 0.0
9.00000, 0.0
9.03500, 0.0
9.07000, 0.0
9.10500, 0.0
9.14000, 0.0
9.17500, 0.0
9.21000, 0.0
9.24500, 0.0
9.28000, 0.0
9.31500, 0.0
9.35000, 0.0
9.38500, 0.0
9.42000, 0.0
9.45500, 0.0
9.49000, 0.0
9.52500, 0.0
9.56000, 0.0
9.59500, 0.0
9.63000, 0.0
9.66500, 0.0
9.70000, 0.0
9.73500, 0.0
9.77000, 0.0
9.80500, 0.0
9.84000, 0.0
9.87500, 0.0
9.91000, 0.0
9.94500, 0.0
9.98000, 0.0
10.01500, 0.0
10.05000, 0.0
10.08500, 0.0
10.12000, 0.0
10.13500, 0.0
#ENDOFDATA   :

File: 20250425_10K_B9_1.txt
#FORMAT      : EMSA/MAS Spectral Data File
#VERSION     : 1.0
#TITLE       : 20250425_10K_B9_1
#DATE        : 24-APR-2025
#TIME        : 10:18
#OWNER       :
#NPOINTS     : 2048.0
#NCOLUMNS    : 1.0
#XUNITS      : keV
#YUNITS      : counts
#DATATYPE    : XY
#XPERCHAN    : 0.005
#OFFSET      : -0.1
#SIGNALTYPE  : EDS
#CHOFFSET    : 20.0
#LIVETIME    : 60.0
#REALTIME    : 61.8551
#BEAMKV      : 10.0
#MAGCAM      : 3300.0
#XTILTSTGE   : 0.0
#AZIMANGLE   : 0.0
#ELEVANGLE   : 29.0
#XPOSITION mm: 1.4805
#YPOSITION mm: -1.5293
#ZPOSITION mm: 13.5200
##OXINSTPT   : 2
##OXINSTSTROB: 67.62
#SPECTRUM    : Spectral Data Starts Here
-0.10000, 0.0
-0.06500, 2.0
-0.03000, 67.0
0.00500, 480.0
0.04000, 1036.0
0.07500, 707.0
0.11000, 198.0
0.14500, 104.0
0.18000, 83.0
0.21500, 100.0
0.25000, 131.0
0.28500, 130.0
0.32000, 96.0
0.35500, 78.0
0.39000, 134.0
0.42500, 252.0
0.46000, 1189.0
0.49500, 4213.0
0.53000, 5715.0
0.56500, 2547.0
0.60000, 472.0
0.63500, 113.0
0.67000, 101.0
0.70500, 131.0
0.74000, 133.0
0.77500, 151.0
0.81000, 167.0
0.84500, 160.0
0.88000, 157.0
0.91500, 183.0
0.95000, 160.0
0.98500, 182.0
1.02000, 184.0
1.05500, 173.0
1.09000, 189.0
1.12500, 196.0
1.16000, 186.0
1.19500, 184.0
1.23000, 184.0
1.26500, 190.0
1.30000, 180.0
1.33500, 204.0
1.37000, 201.0
1.40500, 187.0
1.44000, 198.0
1.47500, 194.0
1.51000, 223.0
1.54500, 239.0
1.58000, 249.0
1.61500, 303.0
1.65000, 1140.0
1.68500, 5043.0
1.72000, 12034.0
1.75500, 13507.0
1.79000, 7175.0
1.82500, 2349.0
1.86000, 771.0
1.89500, 307.0
1.93000, 153.0
1.96500, 94.0
2.00000, 100.0
2.03500, 102.0
2.07000, 98.0
2.10500, 83.0
2.14000, 98.0
2.17500, 96.0
2.21000, 122.0
2.24500, 214.0
2.28000, 355.0
2.31500, 421.0
2.35000, 292.0
2.38500, 167.0
2.42000, 150.0
2.45500, 118.0
2.49000, 109.0
2.52500, 91.0
2.56000, 89.0
2.59500, 70.0
2.63000, 96.0
2.66500, 63.0
2.70000, 76.0
2.73500, 75.0
2.77000, 75.0
2.80500, 68.0
2.84000, 85.0
2.87500, 69.0
2.91000, 88.0
2.94500, 79.0
2.98000, 61.0
3.01500, 65.0
3.05000, 70.0
3.08500, 59.0
3.12000, 79.0
3.15500, 69.0
3.19000, 63.0
3.22500, 57.0
3.26000, 63.0
3.29500, 72.0
3.33000, 57.0
3.36500, 67.0
3.40000, 59.0
3.43500, 75.0
3.47000, 80.0
3.50500, 70.0
3.54000, 62.0
3.57500, 67.0
3.61000, 40.0
3.64500, 52.0
3.68000, 61.0
3.71500, 39.0
3.75000, 44.0
3.78500, 49.0
3.82000, 44.0
3.85500, 42.0
3.89000, 44.0
3.92500, 54.0
3.96000, 66.0
3.99500, 51.0
4.03000, 49.0
4.06500, 43.0
4.10000, 43.0
4.13500, 41.0
4.17000, 46.0
4.20500, 38.0
4.24000, 42.0
4.27500, 35.0
4.31000, 45.0
4.34500, 36.0
4.38000, 38.0
4.41500, 44.0
4.45000, 28.0
4.48500, 31.0
4.52000, 32.0
4.55500, 28.0
4.59000, 30.0
4.62500, 30.0
4.66000, 46.0
4.69500, 29.0
4.73000, 25.0
4.76500, 32.0
4.80000, 25.0
4.83500, 30.0
4.87000, 34.0
4.90500, 39.0
4.94000, 33.0
4.97500, 25.0
5.01000, 28.0
5.04500, 27.0
5.08000, 25.0
5.11500, 25.0
5.15000, 34.0
5.18500, 18.0
5.22000, 30.0
5.25500, 30.0
5.29000, 24.0
5.32500, 28.0
5.36000, 24.0
5.39500, 24.0
5.43000, 17.0
5.46500, 28.0
5.50000, 27.0
5.53500, 17.0
5.57000, 19.0
5.60500, 24.0
5.64000, 24.0
5.67500, 23.0
5.71000, 24.0
5.74500, 19.0
5.78000, 22.0
5.81500, 11.0
5.85000, 16.0
5.88500, 18.0
5.92000, 20.0
5.95500, 15.0
5.99000, 25.0
6.02500, 19.0
6.06000, 14.0
6.09500, 13.0
6.13000, 19.0
6.16500, 22.0
6.20000, 12.0
6.23500, 15.0
6.27000, 18.0
6.30500, 23.0
6.34000, 17.0
6.37500, 18.0
6.41000, 8.0
6.44500, 15.0
6.48000, 21.0
6.51500, 10.0
6.55000, 15.0
6.58500, 3.0
6.62000, 13.0
6.65500, 16.0
6.69000, 11.0
6.72500, 13.0
6.76000, 10.0
6.79500, 11.0
6.83000, 6.0
6.86500, 11.0
6.90000, 12.0
6.93500, 14.0
6.97000, 12.0
7.00500, 7.0
7.04000, 14.0
7.07500, 6.0
7.11000, 10.0
7.14500, 14.0
7.18000, 7.0
7.21500, 13.0
7.25000, 9.0
7.28500, 8.0
7.32000, 12.0
7.35500, 11.0
7.39000, 10.0
7.42500, 9.0
7.46000, 8.0
7.49500, 10.0
7.53000, 0.0
7.56500, 7.0
7.60000, 7.0
7.63500, 15.0
7.67000, 12.0
7.70500, 9.0
7.74000, 4.0
7.77500, 9.0
7.81000, 5.0
7.84500, 8.0
7.88000, 10.0
7.91500, 10.0
7.95000, 7.0
7.98500, 7.0
8.02000, 8.0
8.05500, 5.0
8.09000, 4.0
8.12500, 3.0
8.16000, 6.0
8.19500, 2.0
8.23000, 4.0
8.26500, 2.0
8.30000, 4.0
8.33500, 7.0
8.37000, 7.0
8.40500, 4.0
8.44000, 2.0
8.47500, 4.0
8.51000, 9.0
8.54500, 4.0
8.58000, 3.0
8.61500, 4.0
8.65000, 2.0
8.68500, 3.0
8.72000, 6.0
8.75500, 3.0
8.79000, 5.0
8.82500, 5.0
8.86000, 4.0
8.89500, 1.0
8.93000, 2.0
8.96500, 6.0
9.00000, 3.0
9.03500, 2.0
9.07000, 2.0
9.10500, 2.0
9.14000, 4.0
9.17500, 1.0
9.21000, 1.0
9.24500, 1.0
9.28000, 3.0
9.31500, 3.0
9.35000, 1.0
9.38500, 2.0
9.42000, 1.0
9.45500, 3.0
9.49000, 1.0
9.52500, 2.0
9.56000, 2.0
9.59500, 1.0
9.63000, 2.0
9.66500, 0.0
9.70000, 1.0
9.73500, 0.0
9.77000, 0.0
9.80500, 2.0
9.84000, 1.0
9.87500, 1.0
9.91000, 0.0
9.94500, 0.0
9.98000, 1.0
10.01500, 0.0
10.05000, 0.0
10.08500, 1.0
10.12000, 1.0
10.13500, 0.0
#ENDOFDATA   :

File: 20250425_10K_B15.txt
#FORMAT      : EMSA/MAS Spectral Data File
#VERSION     : 1.0
#TITLE       : 20250425_10K_B15
#DATE        : 24-APR-2025
#TIME        : 09:44
#OWNER       :
#NPOINTS     : 2048.0
#NCOLUMNS    : 1.0
#XUNITS      : keV
#YUNITS      : counts
#DATATYPE    : XY
#XPERCHAN    : 0.005
#OFFSET      : -0.1
#SIGNALTYPE  : EDS
#CHOFFSET    : 20.0
#LIVETIME    : 60.0317
#REALTIME    : 61.7525
#BEAMKV      : 10.0
#MAGCAM      : 2200.0
#XTILTSTGE   : 0.0
#AZIMANGLE   : 0.0
#ELEVANGLE   : 29.0
#XPOSITION mm: 2.0795
#YPOSITION mm: 1.2605
#ZPOSITION mm: 13.4721
##OXINSTPT   : 2
##OXINSTSTROB: 67.54
##OXINSTELEMS: 42,16,14,8
##OXINSTLABEL: 42, 2.293, Mo
##OXINSTLABEL: 42, 2.395, Mo
##OXINSTLABEL: 42, 2.120, Mo
##OXINSTLABEL: 42, 2.831, Mo
##OXINSTLABEL: 42, 2.016, Mo
##OXINSTLABEL: 42, 0.193, Mo
##OXINSTLABEL: 16, 2.308, S
##OXINSTLABEL: 16, 2.464, S
##OXINSTLABEL: 14, 1.740, Si
##OXINSTLABEL: 8, 0.525, O
#SPECTRUM    : Spectral Data Starts Here
-0.10000, 0.0
-0.06500, 3.0
-0.03000, 59.0
0.00500, 465.0
0.04000, 1067.0
0.07500, 755.0
0.11000, 184.0
0.14500, 146.0
0.18000, 174.0
0.21500, 402.0
0.25000, 1252.0
0.28500, 1527.0
0.32000, 621.0
0.35500, 164.0
0.39000, 176.0
0.42500, 199.0
0.46000, 722.0
0.49500, 2420.0
0.53000, 3232.0
0.56500, 1492.0
0.60000, 315.0
0.63500, 92.0
0.67000, 103.0
0.70500, 104.0
0.74000, 109.0
0.77500, 134.0
0.81000, 156.0
0.84500, 178.0
0.88000, 167.0
0.91500, 169.0
0.95000, 144.0
0.98500, 195.0
1.02000, 172.0
1.05500, 195.0
1.09000, 171.0
1.12500, 180.0
1.16000, 180.0
1.19500, 179.0
1.23000, 210.0
1.26500, 211.0
1.30000, 198.0
1.33500, 190.0
1.37000, 186.0
1.40500, 172.0
1.44000, 225.0
1.47500, 215.0
1.51000, 231.0
1.54500, 214.0
1.58000, 218.0
1.61500, 265.0
1.65000, 1021.0
1.68500, 4479.0
1.72000, 10534.0
1.75500, 11567.0
1.79000, 6278.0
1.82500, 2058.0
1.86000, 700.0
1.89500, 272.0
1.93000, 151.0
1.96500, 118.0
2.00000, 111.0
2.03500, 114.0
2.07000, 87.0
2.10500, 100.0
2.14000, 80.0
2.17500, 81.0
2.21000, 139.0
2.24500, 238.0
2.28000, 404.0
2.31500, 482.0
2.35000, 327.0
2.38500, 224.0
2.42000, 159.0
2.45500, 135.0
2.49000, 102.0
2.52500, 103.0
2.56000, 95.0
2.59500, 80.0
2.63000, 69.0
2.66500, 68.0
2.70000, 65.0
2.73500, 63.0
2.77000, 70.0
2.80500, 55.0
2.84000, 61.0
2.87500, 71.0
2.91000, 78.0
2.94500, 59.0
2.98000, 62.0
3.01500, 71.0
3.05000, 66.0
3.08500, 65.0
3.12000, 58.0
3.15500, 63.0
3.19000, 53.0
3.22500, 67.0
3.26000, 51.0
3.29500, 61.0
3.33000, 70.0
3.36500, 56.0
3.40000, 63.0
3.43500, 60.0
3.47000, 69.0
3.50500, 74.0
3.54000, 75.0
3.57500, 47.0
3.61000, 53.0
3.64500, 58.0
3.68000, 47.0
3.71500, 46.0
3.75000, 48.0
3.78500, 34.0
3.82000, 41.0
3.85500, 41.0
3.89000, 40.0
3.92500, 45.0
3.96000, 45.0
3.99500, 43.0
4.03000, 40.0
4.06500, 36.0
4.10000, 42.0
4.13500, 37.0
4.17000, 36.0
4.20500, 36.0
4.24000, 43.0
4.27500, 45.0
4.31000, 38.0
4.34500, 51.0
4.38000, 30.0
4.41500, 30.0
4.45000, 29.0
4.48500, 38.0
4.52000, 31.0
4.55500, 33.0
4.59000, 31.0
4.62500, 27.0
4.66000, 26.0
4.69500, 36.0
4.73000, 30.0
4.76500, 20.0
4.80000, 26.0
4.83500, 31.0
4.87000, 34.0
4.90500, 24.0
4.94000, 26.0
4.97500, 27.0
5.01000, 26.0
5.04500, 25.0
5.08000, 20.0
5.11500, 25.0
5.15000, 29.0
5.18500, 24.0
5.22000, 36.0
5.25500, 16.0
5.29000, 25.0
5.32500, 25.0
5.36000, 27.0
5.39500, 23.0
5.43000, 20.0
5.46500, 29.0
5.50000, 21.0
5.53500, 18.0
5.57000, 24.0
5.60500, 22.0
5.64000, 10.0
5.67500, 27.0
5.71000, 22.0
5.74500, 12.0
5.78000, 24.0
5.81500, 12.0
5.85000, 16.0
5.88500, 20.0
5.92000, 12.0
5.95500, 15.0
5.99000, 13.0
6.02500, 21.0
6.06000, 13.0
6.09500, 14.0
6.13000, 15.0
6.16500, 19.0
6.20000, 13.0
6.23500, 15.0
6.27000, 16.0
6.30500, 13.0
6.34000, 11.0
6.37500, 13.0
6.41000, 14.0
6.44500, 14.0
6.48000, 14.0
6.51500, 17.0
6.55000, 19.0
6.58500, 17.0
6.62000, 7.0
6.65500, 15.0
6.69000, 19.0
6.72500, 12.0
6.76000, 20.0
6.79500, 8.0
6.83000, 13.0
6.86500, 11.0
6.90000, 15.0
6.93500, 4.0
6.97000, 19.0
7.00500, 14.0
7.04000, 11.0
7.07500, 7.0
7.11000, 12.0
7.14500, 11.0
7.18000, 12.0
7.21500, 5.0
7.25000, 7.0
7.28500, 12.0
7.32000, 9.0
7.35500, 8.0
7.39000, 7.0
7.42500, 12.0
7.46000, 5.0
7.49500, 5.0
7.53000, 9.0
7.56500, 5.0
7.60000, 11.0
7.63500, 7.0
7.67000, 8.0
7.70500, 6.0
7.74000, 6.0
7.77500, 6.0
7.81000, 8.0
7.84500, 2.0
7.88000, 4.0
7.91500, 7.0
7.95000, 5.0
7.98500, 8.0
8.02000, 6.0
8.05500, 7.0
8.09000, 4.0
8.12500, 5.0
8.16000, 3.0
8.19500, 2.0
8.23000, 5.0
8.26500, 3.0
8.30000, 3.0
8.33500, 4.0
8.37000, 5.0
8.40500, 2.0
8.44000, 1.0
8.47500, 8.0
8.51000, 7.0
8.54500, 7.0
8.58000, 2.0
8.61500, 2.0
8.65000, 4.0
8.68500, 1.0
8.72000, 4.0
8.75500, 5.0
8.79000, 6.0
8.82500, 3.0
8.86000, 6.0
8.89500, 3.0
8.93000, 2.0
8.96500, 0.0
9.00000, 4.0
9.03500, 6.0
9.07000, 6.0
9.10500, 3.0
9.14000, 0.0
9.17500, 1.0
9.21000, 1.0
9.24500, 1.0
9.28000, 0.0
9.31500, 5.0
9.35000, 1.0
9.38500, 1.0
9.42000, 0.0
9.45500, 0.0
9.49000, 0.0
9.52500, 1.0
9.56000, 2.0
9.59500, 2.0
9.63000, 1.0
9.66500, 1.0
9.70000, 0.0
9.73500, 0.0
9.77000, 0.0
9.80500, 0.0
9.84000, 0.0
9.87500, 1.0
9.91000, 0.0
9.94500, 0.0
9.98000, 0.0
10.01500, 0.0
10.05000, 0.0
10.08500, 0.0
10.12000, 0.0
10.13500, 0.0
#ENDOFDATA   :

File: 20250425_10K_C6_2.txt
#FORMAT      : EMSA/MAS Spectral Data File
#VERSION     : 1.0
#TITLE       : 20250425_10K_C6_2
#DATE        : 24-APR-2025
#TIME        : 10:24
#OWNER       :
#NPOINTS     : 2048.0
#NCOLUMNS    : 1.0
#XUNITS      : keV
#YUNITS      : counts
#DATATYPE    : XY
#XPERCHAN    : 0.005
#OFFSET      : -0.1
#SIGNALTYPE  : EDS
#CHOFFSET    : 20.0
#LIVETIME    : 60.0002
#REALTIME    : 61.8549
#BEAMKV      : 10.0
#MAGCAM      : 700.0
#XTILTSTGE   : 0.0
#AZIMANGLE   : 0.0
#ELEVANGLE   : 29.0
#XPOSITION mm: 1.8685
#YPOSITION mm: -0.6548
#ZPOSITION mm: 13.5200
##OXINSTPT   : 2
##OXINSTSTROB: 67.47
#SPECTRUM    : Spectral Data Starts Here
-0.10000, 0.0
-0.06500, 1.0
-0.03000, 64.0
0.00500, 494.0
0.04000, 1036.0
0.07500, 780.0
0.11000, 215.0
0.14500, 79.0
0.18000, 95.0
0.21500, 107.0
0.25000, 141.0
0.28500, 137.0
0.32000, 75.0
0.35500, 73.0
0.39000, 131.0
0.42500, 268.0
0.46000, 1306.0
0.49500, 4325.0
0.53000, 5727.0
0.56500, 2600.0
0.60000, 476.0
0.63500, 125.0
0.67000, 118.0
0.70500, 111.0
0.74000, 132.0
0.77500, 160.0
0.81000, 155.0
0.84500, 169.0
0.88000, 174.0
0.91500, 187.0
0.95000, 169.0
0.98500, 186.0
1.02000, 192.0
1.05500, 184.0
1.09000, 224.0
1.12500, 201.0
1.16000, 201.0
1.19500, 193.0
1.23000, 198.0
1.26500, 214.0
1.30000, 204.0
1.33500, 203.0
1.37000, 199.0
1.40500, 188.0
1.44000, 192.0
1.47500, 222.0
1.51000, 206.0
1.54500, 215.0
1.58000, 241.0
1.61500, 345.0
1.65000, 1156.0
1.68500, 5151.0
1.72000, 12146.0
1.75500, 13271.0
1.79000, 7472.0
1.82500, 2304.0
1.86000, 778.0
1.89500, 291.0
1.93000, 141.0
1.96500, 107.0
2.00000, 91.0
2.03500, 91.0
2.07000, 95.0
2.10500, 93.0
2.14000, 95.0
2.17500, 104.0
2.21000, 133.0
2.24500, 223.0
2.28000, 359.0
2.31500, 411.0
2.35000, 312.0
2.38500, 187.0
2.42000, 127.0
2.45500, 119.0
2.49000, 104.0
2.52500, 97.0
2.56000, 93.0
2.59500, 81.0
2.63000, 76.0
2.66500, 78.0
2.70000, 71.0
2.73500, 72.0
2.77000, 76.0
2.80500, 73.0
2.84000, 67.0
2.87500, 77.0
2.91000, 76.0
2.94500, 74.0
2.98000, 51.0
3.01500, 70.0
3.05000, 56.0
3.08500, 71.0
3.12000, 76.0
3.15500, 67.0
3.19000, 56.0
3.22500, 63.0
3.26000, 58.0
3.29500, 62.0
3.33000, 59.0
3.36500, 63.0
3.40000, 51.0
3.43500, 56.0
3.47000, 86.0
3.50500, 74.0
3.54000, 72.0
3.57500, 73.0
3.61000, 54.0
3.64500, 47.0
3.68000, 44.0
3.71500, 57.0
3.75000, 43.0
3.78500, 51.0
3.82000, 46.0
3.85500, 37.0
3.89000, 49.0
3.92500, 44.0
3.96000, 34.0
3.99500, 46.0
4.03000, 29.0
4.06500, 44.0
4.10000, 40.0
4.13500, 45.0
4.17000, 32.0
4.20500, 46.0
4.24000, 34.0
4.27500, 35.0
4.31000, 43.0
4.34500, 38.0
4.38000, 37.0
4.41500, 39.0
4.45000, 34.0
4.48500, 31.0
4.52000, 38.0
4.55500, 31.0
4.59000, 40.0
4.62500, 33.0
4.66000, 31.0
4.69500, 30.0
4.73000, 32.0
4.76500, 39.0
4.80000, 28.0
4.83500, 42.0
4.87000, 29.0
4.90500, 30.0
4.94000, 32.0
4.97500, 23.0
5.01000, 23.0
5.04500, 28.0
5.08000, 24.0
5.11500, 24.0
5.15000, 33.0
5.18500, 25.0
5.22000, 26.0
5.25500, 23.0
5.29000, 30.0
5.32500, 24.0
5.36000, 26.0
5.39500, 22.0
5.43000, 31.0
5.46500, 25.0
5.50000, 29.0
5.53500, 15.0
5.57000, 13.0
5.60500, 17.0
5.64000, 13.0
5.67500, 18.0
5.71000, 15.0
5.74500, 27.0
5.78000, 25.0
5.81500, 22.0
5.85000, 13.0
5.88500, 23.0
5.92000, 22.0
5.95500, 15.0
5.99000, 16.0
6.02500, 18.0
6.06000, 16.0
6.09500, 15.0
6.13000, 20.0
6.16500, 16.0
6.20000, 22.0
6.23500, 14.0
6.27000, 19.0
6.30500, 17.0
6.34000, 15.0
6.37500, 16.0
6.41000, 14.0
6.44500, 13.0
6.48000, 25.0
6.51500, 19.0
6.55000, 16.0
6.58500, 15.0
6.62000, 11.0
6.65500, 8.0
6.69000, 11.0
6.72500, 11.0
6.76000, 13.0
6.79500, 14.0
6.83000, 8.0
6.86500, 12.0
6.90000, 9.0
6.93500, 14.0
6.97000, 10.0
7.00500, 9.0
7.04000, 14.0
7.07500, 15.0
7.11000, 9.0
7.14500, 8.0
7.18000, 17.0
7.21500, 6.0
7.25000, 8.0
7.28500, 8.0
7.32000, 11.0
7.35500, 7.0
7.39000, 8.0
7.42500, 10.0
7.46000, 8.0
7.49500, 7.0
7.53000, 11.0
7.56500, 10.0
7.60000, 4.0
7.63500, 8.0
7.67000, 8.0
7.70500, 12.0
7.74000, 8.0
7.77500, 5.0
7.81000, 9.0
7.84500, 9.0
7.88000, 6.0
7.91500, 7.0
7.95000, 7.0
7.98500, 8.0
8.02000, 6.0
8.05500, 8.0
8.09000, 5.0
8.12500, 5.0
8.16000, 6.0
8.19500, 4.0
8.23000, 5.0
8.26500, 6.0
8.30000, 5.0
8.33500, 4.0
8.37000, 4.0
8.40500, 6.0
8.44000, 4.0
8.47500, 3.0
8.51000, 7.0
8.54500, 3.0
8.58000, 6.0
8.61500, 3.0
8.65000, 3.0
8.68500, 4.0
8.72000, 3.0
8.75500, 2.0
8.79000, 3.0
8.82500, 7.0
8.86000, 5.0
8.89500, 4.0
8.93000, 0.0
8.96500, 1.0
9.00000, 3.0
9.03500, 6.0
9.07000, 7.0
9.10500, 5.0
9.14000, 4.0
9.17500, 2.0
9.21000, 1.0
9.24500, 1.0
9.28000, 0.0
9.31500, 2.0
9.35000, 2.0
9.38500, 2.0
9.42000, 1.0
9.45500, 1.0
9.49000, 2.0
9.52500, 1.0
9.56000, 0.0
9.59500, 2.0
9.63000, 1.0
9.66500, 0.0
9.70000, 2.0
9.73500, 0.0
9.77000, 0.0
9.80500, 2.0
9.84000, 1.0
9.87500, 0.0
9.91000, 0.0
9.94500, 1.0
9.98000, 0.0
10.01500, 0.0
10.05000, 0.0
10.08500, 0.0
10.12000, 0.0
10.13500, 0.0
#ENDOFDATA   :