Folder: Sommarjobb-2024/Thick 1

File: A10_15keV_10.txt
#FORMAT      : EMSA/MAS Spectral Data File
#VERSION     : 1.0
#TITLE       : A10_15keV_10
#DATE        : 04-JUL-2024
#TIME        : 10:25
#OWNER       :
#NPOINTS     : 1024.0
#NCOLUMNS    : 1.0
#XUNITS      : keV
#YUNITS      : counts
#DATATYPE    : XY
#XPERCHAN    : 0.02
#OFFSET      : -0.2
#SIGNALTYPE  : EDS
#CHOFFSET    : 10.0
#LIVETIME    : 120.335
#REALTIME    : 122.805
#BEAMKV      : 15.0
#MAGCAM      : 220.0
#XTILTSTGE   : 0.0
#AZIMANGLE   : 0.0
#ELEVANGLE   : 25.5
#XPOSITION mm: -0.1828
#YPOSITION mm: -1.1990
#ZPOSITION mm: 14.6374
##OXINSTPT   : 2
##OXINSTSTROB: 69.74
##OXINSTELEMS: 6,8,16,29,7,15,9
##OXINSTLABEL: 6, 0.277, C K?1_2
##OXINSTLABEL: 8, 0.525, O K?1
##OXINSTLABEL: 16, 2.308, S K?1
##OXINSTLABEL: 16, 2.464, S K?1
##OXINSTLABEL: 29, 8.048, Cu K?1
##OXINSTLABEL: 29, 8.905, Cu K?1
##OXINSTLABEL: 29, 0.930, Cu L?1,2
##OXINSTLABEL: 29, 0.832, Cu L?
##OXINSTLABEL: 29, 0.811, Cu Ll
##OXINSTLABEL: 7, 0.392, N K?1_2
##OXINSTLABEL: 15, 2.014, P K?1
##OXINSTLABEL: 15, 2.139, P K?1
##OXINSTLABEL: 9, 0.677, F K?1_2
#SPECTRUM    : Spectral Data Starts Here
-0.20000, 0.0
-0.12000, 0.0
-0.04000, 552.0
0.04000, 10209.0
0.12000, 1942.0
0.20000, 1016.0
0.28000, 464.0
0.36000, 154.0
0.44000, 238.0
0.52000, 710.0
0.60000, 780.0
0.68000, 468.0
0.76000, 511.0
0.84000, 558.0
0.92000, 671.0
1.00000, 697.0
1.08000, 821.0
1.16000, 838.0
1.24000, 842.0
1.32000, 857.0
1.40000, 885.0
1.48000, 897.0
1.56000, 893.0
1.64000, 989.0
1.72000, 3615.0
1.80000, 2171.0
1.88000, 922.0
1.96000, 1066.0
2.04000, 1384.0
2.12000, 1085.0
2.20000, 3784.0
2.28000, 34239.0
2.36000, 24866.0
2.44000, 7502.0
2.52000, 2492.0
2.60000, 689.0
2.68000, 410.0
2.76000, 347.0
2.84000, 439.0
2.92000, 383.0
3.00000, 324.0
3.08000, 349.0
3.16000, 330.0
3.24000, 301.0
3.32000, 328.0
3.40000, 312.0
3.48000, 331.0
3.56000, 307.0
3.64000, 303.0
3.72000, 303.0
3.80000, 290.0
3.88000, 301.0
3.96000, 316.0
4.04000, 301.0
4.12000, 287.0
4.20000, 282.0
4.28000, 293.0
4.36000, 284.0
4.44000, 257.0
4.52000, 285.0
4.60000, 281.0
4.68000, 268.0
4.76000, 262.0
4.84000, 242.0
4.92000, 241.0
5.00000, 258.0
5.08000, 240.0
5.16000, 206.0
5.24000, 223.0
5.32000, 228.0
5.40000, 231.0
5.48000, 215.0
5.56000, 214.0
5.64000, 216.0
5.72000, 216.0
5.80000, 206.0
5.88000, 192.0
5.96000, 182.0
6.04000, 205.0
6.12000, 174.0
6.20000, 182.0
6.28000, 159.0
6.36000, 191.0
6.44000, 183.0
6.52000, 172.0
6.60000, 167.0
6.68000, 168.0
6.76000, 160.0
6.84000, 156.0
6.92000, 149.0
7.00000, 159.0
7.08000, 137.0
7.16000, 166.0
7.24000, 145.0
7.32000, 139.0
7.40000, 138.0
7.48000, 130.0
7.56000, 128.0
7.64000, 122.0
7.72000, 130.0
7.80000, 126.0
7.88000, 129.0
7.96000, 119.0
8.04000, 123.0
8.12000, 112.0
8.20000, 128.0
8.28000, 104.0
8.36000, 111.0
8.44000, 104.0
8.52000, 103.0
8.60000, 107.0
8.68000, 108.0
8.76000, 90.0
8.84000, 100.0
8.92000, 92.0
9.00000, 90.0
9.08000, 93.0
9.16000, 93.0
9.24000, 85.0
9.32000, 89.0
9.40000, 92.0
9.48000, 80.0
9.56000, 80.0
9.64000, 82.0
9.72000, 74.0
9.80000, 74.0
9.88000, 78.0
9.96000, 85.0
10.04000, 71.0
10.12000, 65.0
10.20000, 71.0
10.28000, 76.0
10.36000, 65.0
10.44000, 62.0
10.52000, 53.0
10.60000, 52.0
10.68000, 56.0
10.76000, 54.0
10.84000, 49.0
10.92000, 57.0
11.00000, 63.0
11.08000, 49.0
11.16000, 58.0
11.24000, 54.0
11.32000, 43.0
11.40000, 38.0
11.48000, 50.0
11.56000, 45.0
11.64000, 47.0
11.72000, 49.0
11.80000, 39.0
11.88000, 39.0
11.96000, 39.0
12.04000, 38.0
12.12000, 41.0
12.20000, 30.0
12.28000, 29.0
12.36000, 26.0
12.44000, 32.0
12.52000, 32.0
12.60000, 31.0
12.68000, 17.0
12.76000, 28.0
12.84000, 28.0
12.92000, 23.0
13.00000, 24.0
13.08000, 20.0
13.16000, 20.0
13.24000, 21.0
13.32000, 18.0
13.40000, 18.0
13.48000, 16.0
13.56000, 17.0
13.64000, 16.0
13.72000, 9.0
13.80000, 13.0
13.88000, 10.0
13.96000, 12.0
14.04000, 6.0
14.12000, 6.0
14.20000, 6.0
14.28000, 6.0
14.36000, 7.0
14.44000, 6.0
14.52000, 6.0
14.60000, 3.0
14.68000, 4.0
14.76000, 2.0
14.84000, 4.0
14.92000, 1.0
15.00000, 0.0
15.08000, 0.0
15.16000, 0.0
15.24000, 0.0
15.32000, 0.0
15.40000, 0.0
15.48000, 0.0
15.56000, 0.0
15.64000, 0.0
15.72000, 0.0
15.80000, 0.0
15.88000, 0.0
15.96000, 0.0
16.04000, 0.0
16.12000, 0.0
16.20000, 0.0
16.28000, 0.0
16.36000, 0.0
16.44000, 0.0
16.52000, 0.0
16.60000, 0.0
16.68000, 0.0
16.76000, 0.0
16.84000, 0.0
16.92000, 0.0
17.00000, 0.0
17.08000, 0.0
17.16000, 0.0
17.24000, 0.0
17.32000, 0.0
17.40000, 0.0
17.48000, 1.0
17.56000, 0.0
17.64000, 0.0
17.72000, 0.0
17.80000, 0.0
17.88000, 0.0
17.96000, 0.0
18.04000, 0.0
18.12000, 0.0
18.20000, 0.0
18.28000, 0.0
18.36000, 0.0
18.44000, 0.0
18.52000, 0.0
18.60000, 0.0
18.68000, 0.0
18.76000, 0.0
18.84000, 0.0
18.92000, 0.0
19.00000, 0.0
19.08000, 0.0
19.16000, 0.0
19.24000, 0.0
19.32000, 0.0
19.40000, 0.0
19.48000, 0.0
19.56000, 0.0
19.64000, 0.0
19.72000, 0.0
19.80000, 0.0
19.88000, 0.0
19.96000, 0.0
20.04000, 0.0
20.12000, 0.0
20.20000, 0.0
20.26000, 0.0
#ENDOFDATA   :

File: C10_15keV_10.txt
#FORMAT      : EMSA/MAS Spectral Data File
#VERSION     : 1.0
#TITLE       : C10_15keV_10
#DATE        : 04-JUL-2024
#TIME        : 09:18
#OWNER       :
#NPOINTS     : 1024.0
#NCOLUMNS    : 1.0
#XUNITS      : keV
#YUNITS      : counts
#DATATYPE    : XY
#XPERCHAN    : 0.02
#OFFSET      : -0.2
#SIGNALTYPE  : EDS
#CHOFFSET    : 10.0
#LIVETIME    : 119.998
#REALTIME    : 122.417
#BEAMKV      : 15.0
#MAGCAM      : 4300.0
#XTILTSTGE   : 0.0
#AZIMANGLE   : 0.0
#ELEVANGLE   : 25.5
#XPOSITION mm: 0.1598
#YPOSITION mm: -0.9510
#ZPOSITION mm: 14.6072
##OXINSTPT   : 2
##OXINSTSTROB: 69.71
##OXINSTELEMS: 8,16,14,42
##OXINSTLABEL: 8, 0.525, O K?1
##OXINSTLABEL: 16, 2.308, S K?1
##OXINSTLABEL: 16, 2.464, S K?1
##OXINSTLABEL: 14, 1.740, Si K?1
##OXINSTLABEL: 42, 0.193, Mo M?
##OXINSTLABEL: 42, 2.016, Mo Ll
##OXINSTLABEL: 42, 2.120, Mo L?
##OXINSTLABEL: 42, 2.293, Mo L?1
##OXINSTLABEL: 42, 2.395, Mo L?1
##OXINSTLABEL: 42, 2.518, Mo L?2,15
##OXINSTLABEL: 42, 2.624, Mo L?1
##OXINSTLABEL: 42, 2.831, Mo L?2,3
##OXINSTLABEL: 42, 17.375, Mo K?2
##OXINSTLABEL: 42, 17.480, Mo K?1
##OXINSTLABEL: 42, 19.609, Mo K?1
##OXINSTLABEL: 42, 19.965, Mo K?2
#SPECTRUM    : Spectral Data Starts Here
-0.20000, 0.0
-0.12000, 0.0
-0.04000, 535.0
0.04000, 10137.0
0.12000, 1191.0
0.20000, 533.0
0.28000, 1099.0
0.36000, 206.0
0.44000, 420.0
0.52000, 2746.0
0.60000, 455.0
0.68000, 253.0
0.76000, 308.0
0.84000, 391.0
0.92000, 454.0
1.00000, 536.0
1.08000, 544.0
1.16000, 567.0
1.24000, 629.0
1.32000, 658.0
1.40000, 690.0
1.48000, 764.0
1.56000, 871.0
1.64000, 3822.0
1.72000, 51241.0
1.80000, 25168.0
1.88000, 2085.0
1.96000, 337.0
2.04000, 354.0
2.12000, 320.0
2.20000, 529.0
2.28000, 3215.0
2.36000, 2431.0
2.44000, 898.0
2.52000, 501.0
2.60000, 290.0
2.68000, 265.0
2.76000, 257.0
2.84000, 254.0
2.92000, 223.0
3.00000, 226.0
3.08000, 226.0
3.16000, 215.0
3.24000, 194.0
3.32000, 221.0
3.40000, 214.0
3.48000, 256.0
3.56000, 220.0
3.64000, 190.0
3.72000, 197.0
3.80000, 167.0
3.88000, 181.0
3.96000, 174.0
4.04000, 170.0
4.12000, 164.0
4.20000, 168.0
4.28000, 161.0
4.36000, 161.0
4.44000, 161.0
4.52000, 152.0
4.60000, 150.0
4.68000, 141.0
4.76000, 141.0
4.84000, 140.0
4.92000, 130.0
5.00000, 125.0
5.08000, 138.0
5.16000, 126.0
5.24000, 133.0
5.32000, 125.0
5.40000, 124.0
5.48000, 126.0
5.56000, 118.0
5.64000, 113.0
5.72000, 110.0
5.80000, 116.0
5.88000, 104.0
5.96000, 109.0
6.04000, 89.0
6.12000, 98.0
6.20000, 87.0
6.28000, 102.0
6.36000, 84.0
6.44000, 92.0
6.52000, 83.0
6.60000, 83.0
6.68000, 86.0
6.76000, 79.0
6.84000, 80.0
6.92000, 90.0
7.00000, 70.0
7.08000, 74.0
7.16000, 80.0
7.24000, 77.0
7.32000, 71.0
7.40000, 73.0
7.48000, 59.0
7.56000, 67.0
7.64000, 64.0
7.72000, 47.0
7.80000, 56.0
7.88000, 57.0
7.96000, 65.0
8.04000, 54.0
8.12000, 66.0
8.20000, 65.0
8.28000, 49.0
8.36000, 59.0
8.44000, 46.0
8.52000, 50.0
8.60000, 52.0
8.68000, 42.0
8.76000, 41.0
8.84000, 39.0
8.92000, 44.0
9.00000, 44.0
9.08000, 41.0
9.16000, 45.0
9.24000, 42.0
9.32000, 35.0
9.40000, 38.0
9.48000, 36.0
9.56000, 38.0
9.64000, 33.0
9.72000, 34.0
9.80000, 28.0
9.88000, 39.0
9.96000, 31.0
10.04000, 28.0
10.12000, 32.0
10.20000, 26.0
10.28000, 35.0
10.36000, 31.0
10.44000, 25.0
10.52000, 28.0
10.60000, 27.0
10.68000, 21.0
10.76000, 25.0
10.84000, 24.0
10.92000, 20.0
11.00000, 27.0
11.08000, 20.0
11.16000, 22.0
11.24000, 23.0
11.32000, 21.0
11.40000, 17.0
11.48000, 17.0
11.56000, 14.0
11.64000, 13.0
11.72000, 24.0
11.80000, 16.0
11.88000, 14.0
11.96000, 22.0
12.04000, 21.0
12.12000, 15.0
12.20000, 14.0
12.28000, 11.0
12.36000, 11.0
12.44000, 9.0
12.52000, 9.0
12.60000, 11.0
12.68000, 11.0
12.76000, 8.0
12.84000, 8.0
12.92000, 8.0
13.00000, 10.0
13.08000, 8.0
13.16000, 8.0
13.24000, 7.0
13.32000, 10.0
13.40000, 6.0
13.48000, 5.0
13.56000, 7.0
13.64000, 6.0
13.72000, 4.0
13.80000, 5.0
13.88000, 3.0
13.96000, 4.0
14.04000, 6.0
14.12000, 6.0
14.20000, 6.0
14.28000, 2.0
14.36000, 3.0
14.44000, 5.0
14.52000, 2.0
14.60000, 3.0
14.68000, 1.0
14.76000, 3.0
14.84000, 3.0
14.92000, 2.0
15.00000, 0.0
15.08000, 0.0
15.16000, 1.0
15.24000, 0.0
15.32000, 0.0
15.40000, 0.0
15.48000, 0.0
15.56000, 0.0
15.64000, 0.0
15.72000, 0.0
15.80000, 0.0
15.88000, 0.0
15.96000, 0.0
16.04000, 0.0
16.12000, 0.0
16.20000, 0.0
16.28000, 0.0
16.36000, 0.0
16.44000, 0.0
16.52000, 0.0
16.60000, 0.0
16.68000, 0.0
16.76000, 0.0
16.84000, 0.0
16.92000, 0.0
17.00000, 0.0
17.08000, 0.0
17.16000, 0.0
17.24000, 0.0
17.32000, 0.0
17.40000, 0.0
17.48000, 0.0
17.56000, 0.0
17.64000, 0.0
17.72000, 0.0
17.80000, 0.0
17.88000, 0.0
17.96000, 0.0
18.04000, 0.0
18.12000, 0.0
18.20000, 0.0
18.28000, 0.0
18.36000, 0.0
18.44000, 0.0
18.52000, 0.0
18.60000, 0.0
18.68000, 0.0
18.76000, 0.0
18.84000, 0.0
18.92000, 0.0
19.00000, 0.0
19.08000, 0.0
19.16000, 0.0
19.24000, 0.0
19.32000, 0.0
19.40000, 0.0
19.48000, 0.0
19.56000, 0.0
19.64000, 0.0
19.72000, 0.0
19.80000, 0.0
19.88000, 0.0
19.96000, 0.0
20.04000, 0.0
20.12000, 0.0
20.20000, 0.0
20.26000, 0.0
#ENDOFDATA   :

File: D9_15keV_10.txt
#FORMAT      : EMSA/MAS Spectral Data File
#VERSION     : 1.0
#TITLE       : D9_15keV_10
#DATE        : 04-JUL-2024
#TIME        : 10:03
#OWNER       :
#NPOINTS     : 1024.0
#NCOLUMNS    : 1.0
#XUNITS      : keV
#YUNITS      : counts
#DATATYPE    : XY
#XPERCHAN    : 0.02
#OFFSET      : -0.2
#SIGNALTYPE  : EDS
#CHOFFSET    : 10.0
#LIVETIME    : 120.051
#REALTIME    : 122.623
#BEAMKV      : 15.0
#MAGCAM      : 2700.0
#XTILTSTGE   : 0.0
#AZIMANGLE   : 0.0
#ELEVANGLE   : 25.5
#XPOSITION mm: 0.3475
#YPOSITION mm: -0.9593
#ZPOSITION mm: 14.6334
##OXINSTPT   : 2
##OXINSTSTROB: 69.71
##OXINSTELEMS: 6,8,16,29,7,15,9
##OXINSTLABEL: 6, 0.277, C K?1_2
##OXINSTLABEL: 8, 0.525, O K?1
##OXINSTLABEL: 16, 2.308, S K?1
##OXINSTLABEL: 16, 2.464, S K?1
##OXINSTLABEL: 29, 8.048, Cu K?1
##OXINSTLABEL: 29, 8.905, Cu K?1
##OXINSTLABEL: 29, 0.930, Cu L?1,2
##OXINSTLABEL: 29, 0.832, Cu L?
##OXINSTLABEL: 29, 0.811, Cu Ll
##OXINSTLABEL: 7, 0.392, N K?1_2
##OXINSTLABEL: 15, 2.014, P K?1
##OXINSTLABEL: 15, 2.139, P K?1
##OXINSTLABEL: 9, 0.677, F K?1_2
#SPECTRUM    : Spectral Data Starts Here
-0.20000, 0.0
-0.12000, 0.0
-0.04000, 531.0
0.04000, 10080.0
0.12000, 999.0
0.20000, 506.0
0.28000, 3275.0
0.36000, 387.0
0.44000, 651.0
0.52000, 5098.0
0.60000, 610.0
0.68000, 233.0
0.76000, 306.0
0.84000, 406.0
0.92000, 446.0
1.00000, 530.0
1.08000, 579.0
1.16000, 614.0
1.24000, 638.0
1.32000, 709.0
1.40000, 712.0
1.48000, 818.0
1.56000, 900.0
1.64000, 4393.0
1.72000, 60517.0
1.80000, 29508.0
1.88000, 2300.0
1.96000, 299.0
2.04000, 232.0
2.12000, 257.0
2.20000, 286.0
2.28000, 692.0
2.36000, 594.0
2.44000, 315.0
2.52000, 283.0
2.60000, 260.0
2.68000, 240.0
2.76000, 255.0
2.84000, 239.0
2.92000, 224.0
3.00000, 240.0
3.08000, 245.0
3.16000, 227.0
3.24000, 210.0
3.32000, 230.0
3.40000, 235.0
3.48000, 267.0
3.56000, 235.0
3.64000, 212.0
3.72000, 204.0
3.80000, 190.0
3.88000, 189.0
3.96000, 175.0
4.04000, 182.0
4.12000, 185.0
4.20000, 179.0
4.28000, 153.0
4.36000, 175.0
4.44000, 182.0
4.52000, 141.0
4.60000, 141.0
4.68000, 150.0
4.76000, 142.0
4.84000, 142.0
4.92000, 131.0
5.00000, 132.0
5.08000, 135.0
5.16000, 124.0
5.24000, 121.0
5.32000, 136.0
5.40000, 109.0
5.48000, 119.0
5.56000, 127.0
5.64000, 115.0
5.72000, 102.0
5.80000, 91.0
5.88000, 96.0
5.96000, 99.0
6.04000, 100.0
6.12000, 98.0
6.20000, 110.0
6.28000, 99.0
6.36000, 84.0
6.44000, 77.0
6.52000, 83.0
6.60000, 86.0
6.68000, 83.0
6.76000, 75.0
6.84000, 79.0
6.92000, 72.0
7.00000, 79.0
7.08000, 61.0
7.16000, 77.0
7.24000, 62.0
7.32000, 64.0
7.40000, 75.0
7.48000, 64.0
7.56000, 56.0
7.64000, 53.0
7.72000, 55.0
7.80000, 60.0
7.88000, 52.0
7.96000, 56.0
8.04000, 61.0
8.12000, 57.0
8.20000, 56.0
8.28000, 45.0
8.36000, 59.0
8.44000, 50.0
8.52000, 52.0
8.60000, 49.0
8.68000, 43.0
8.76000, 54.0
8.84000, 39.0
8.92000, 48.0
9.00000, 43.0
9.08000, 39.0
9.16000, 36.0
9.24000, 33.0
9.32000, 35.0
9.40000, 42.0
9.48000, 33.0
9.56000, 33.0
9.64000, 38.0
9.72000, 33.0
9.80000, 28.0
9.88000, 29.0
9.96000, 31.0
10.04000, 27.0
10.12000, 26.0
10.20000, 32.0
10.28000, 27.0
10.36000, 24.0
10.44000, 23.0
10.52000, 25.0
10.60000, 23.0
10.68000, 27.0
10.76000, 24.0
10.84000, 17.0
10.92000, 26.0
11.00000, 23.0
11.08000, 21.0
11.16000, 18.0
11.24000, 24.0
11.32000, 20.0
11.40000, 13.0
11.48000, 14.0
11.56000, 14.0
11.64000, 15.0
11.72000, 11.0
11.80000, 13.0
11.88000, 16.0
11.96000, 9.0
12.04000, 15.0
12.12000, 12.0
12.20000, 11.0
12.28000, 12.0
12.36000, 12.0
12.44000, 13.0
12.52000, 11.0
12.60000, 8.0
12.68000, 10.0
12.76000, 6.0
12.84000, 7.0
12.92000, 7.0
13.00000, 4.0
13.08000, 5.0
13.16000, 6.0
13.24000, 5.0
13.32000, 6.0
13.40000, 5.0
13.48000, 3.0
13.56000, 4.0
13.64000, 7.0
13.72000, 3.0
13.80000, 1.0
13.88000, 5.0
13.96000, 3.0
14.04000, 2.0
14.12000, 2.0
14.20000, 2.0
14.28000, 4.0
14.36000, 2.0
14.44000, 1.0
14.52000, 2.0
14.60000, 0.0
14.68000, 0.0
14.76000, 3.0
14.84000, 0.0
14.92000, 0.0
15.00000, 1.0
15.08000, 0.0
15.16000, 0.0
15.24000, 0.0
15.32000, 0.0
15.40000, 1.0
15.48000, 0.0
15.56000, 0.0
15.64000, 0.0
15.72000, 0.0
15.80000, 0.0
15.88000, 0.0
15.96000, 0.0
16.04000, 0.0
16.12000, 0.0
16.20000, 0.0
16.28000, 0.0
16.36000, 0.0
16.44000, 0.0
16.52000, 0.0
16.60000, 0.0
16.68000, 0.0
16.76000, 0.0
16.84000, 0.0
16.92000, 0.0
17.00000, 0.0
17.08000, 0.0
17.16000, 0.0
17.24000, 0.0
17.32000, 0.0
17.40000, 0.0
17.48000, 0.0
17.56000, 0.0
17.64000, 0.0
17.72000, 0.0
17.80000, 0.0
17.88000, 0.0
17.96000, 0.0
18.04000, 0.0
18.12000, 0.0
18.20000, 0.0
18.28000, 0.0
18.36000, 0.0
18.44000, 0.0
18.52000, 1.0
18.60000, 0.0
18.68000, 0.0
18.76000, 0.0
18.84000, 0.0
18.92000, 0.0
19.00000, 0.0
19.08000, 0.0
19.16000, 0.0
19.24000, 0.0
19.32000, 0.0
19.40000, 0.0
19.48000, 0.0
19.56000, 0.0
19.64000, 0.0
19.72000, 0.0
19.80000, 0.0
19.88000, 0.0
19.96000, 1.0
20.04000, 0.0
20.12000, 0.0
20.20000, 0.0
20.26000, 0.0
#ENDOFDATA   :

File: N15_15keV_10.txt
#FORMAT      : EMSA/MAS Spectral Data File
#VERSION     : 1.0
#TITLE       : N15_15keV_10
#DATE        : 04-JUL-2024
#TIME        : 10:07
#OWNER       :
#NPOINTS     : 1024.0
#NCOLUMNS    : 1.0
#XUNITS      : keV
#YUNITS      : counts
#DATATYPE    : XY
#XPERCHAN    : 0.02
#OFFSET      : -0.2
#SIGNALTYPE  : EDS
#CHOFFSET    : 10.0
#LIVETIME    : 120.17
#REALTIME    : 122.419
#BEAMKV      : 15.0
#MAGCAM      : 750.0
#XTILTSTGE   : 0.0
#AZIMANGLE   : 0.0
#ELEVANGLE   : 25.5
#XPOSITION mm: 0.0598
#YPOSITION mm: 2.0935
#ZPOSITION mm: 14.6334
##OXINSTPT   : 2
##OXINSTSTROB: 69.70
##OXINSTELEMS: 6,8,16,29,7,15,9
##OXINSTLABEL: 6, 0.277, C K?1_2
##OXINSTLABEL: 8, 0.525, O K?1
##OXINSTLABEL: 16, 2.308, S K?1
##OXINSTLABEL: 16, 2.464, S K?1
##OXINSTLABEL: 29, 8.048, Cu K?1
##OXINSTLABEL: 29, 8.905, Cu K?1
##OXINSTLABEL: 29, 0.930, Cu L?1,2
##OXINSTLABEL: 29, 0.832, Cu L?
##OXINSTLABEL: 29, 0.811, Cu Ll
##OXINSTLABEL: 7, 0.392, N K?1_2
##OXINSTLABEL: 15, 2.014, P K?1
##OXINSTLABEL: 15, 2.139, P K?1
##OXINSTLABEL: 9, 0.677, F K?1_2
#SPECTRUM    : Spectral Data Starts Here
-0.20000, 0.0
-0.12000, 0.0
-0.04000, 549.0
0.04000, 10243.0
0.12000, 1358.0
0.20000, 630.0
0.28000, 409.0
0.36000, 133.0
0.44000, 227.0
0.52000, 1140.0
0.60000, 388.0
0.68000, 309.0
0.76000, 361.0
0.84000, 411.0
0.92000, 453.0
1.00000, 522.0
1.08000, 577.0
1.16000, 601.0
1.24000, 621.0
1.32000, 685.0
1.40000, 667.0
1.48000, 743.0
1.56000, 811.0
1.64000, 3054.0
1.72000, 39320.0
1.80000, 19546.0
1.88000, 1749.0
1.96000, 431.0
2.04000, 451.0
2.12000, 433.0
2.20000, 955.0
2.28000, 7455.0
2.36000, 5422.0
2.44000, 1772.0
2.52000, 807.0
2.60000, 353.0
2.68000, 280.0
2.76000, 240.0
2.84000, 270.0
2.92000, 240.0
3.00000, 228.0
3.08000, 241.0
3.16000, 224.0
3.24000, 227.0
3.32000, 216.0
3.40000, 242.0
3.48000, 241.0
3.56000, 221.0
3.64000, 212.0
3.72000, 219.0
3.80000, 207.0
3.88000, 194.0
3.96000, 203.0
4.04000, 197.0
4.12000, 174.0
4.20000, 174.0
4.28000, 173.0
4.36000, 175.0
4.44000, 194.0
4.52000, 159.0
4.60000, 155.0
4.68000, 170.0
4.76000, 165.0
4.84000, 148.0
4.92000, 134.0
5.00000, 144.0
5.08000, 133.0
5.16000, 142.0
5.24000, 133.0
5.32000, 121.0
5.40000, 121.0
5.48000, 115.0
5.56000, 127.0
5.64000, 134.0
5.72000, 111.0
5.80000, 103.0
5.88000, 115.0
5.96000, 114.0
6.04000, 103.0
6.12000, 116.0
6.20000, 100.0
6.28000, 110.0
6.36000, 101.0
6.44000, 96.0
6.52000, 88.0
6.60000, 87.0
6.68000, 95.0
6.76000, 94.0
6.84000, 85.0
6.92000, 80.0
7.00000, 79.0
7.08000, 68.0
7.16000, 73.0
7.24000, 66.0
7.32000, 61.0
7.40000, 67.0
7.48000, 70.0
7.56000, 75.0
7.64000, 73.0
7.72000, 74.0
7.80000, 69.0
7.88000, 69.0
7.96000, 71.0
8.04000, 61.0
8.12000, 59.0
8.20000, 57.0
8.28000, 66.0
8.36000, 53.0
8.44000, 56.0
8.52000, 54.0
8.60000, 55.0
8.68000, 51.0
8.76000, 51.0
8.84000, 47.0
8.92000, 47.0
9.00000, 42.0
9.08000, 58.0
9.16000, 43.0
9.24000, 49.0
9.32000, 43.0
9.40000, 40.0
9.48000, 46.0
9.56000, 42.0
9.64000, 33.0
9.72000, 44.0
9.80000, 28.0
9.88000, 32.0
9.96000, 36.0
10.04000, 40.0
10.12000, 32.0
10.20000, 32.0
10.28000, 29.0
10.36000, 36.0
10.44000, 26.0
10.52000, 34.0
10.60000, 34.0
10.68000, 32.0
10.76000, 31.0
10.84000, 26.0
10.92000, 28.0
11.00000, 26.0
11.08000, 28.0
11.16000, 26.0
11.24000, 23.0
11.32000, 23.0
11.40000, 22.0
11.48000, 20.0
11.56000, 14.0
11.64000, 20.0
11.72000, 18.0
11.80000, 20.0
11.88000, 22.0
11.96000, 17.0
12.04000, 16.0
12.12000, 13.0
12.20000, 20.0
12.28000, 15.0
12.36000, 19.0
12.44000, 19.0
12.52000, 18.0
12.60000, 8.0
12.68000, 12.0
12.76000, 14.0
12.84000, 12.0
12.92000, 13.0
13.00000, 14.0
13.08000, 10.0
13.16000, 11.0
13.24000, 11.0
13.32000, 13.0
13.40000, 11.0
13.48000, 7.0
13.56000, 5.0
13.64000, 8.0
13.72000, 5.0
13.80000, 6.0
13.88000, 7.0
13.96000, 6.0
14.04000, 2.0
14.12000, 4.0
14.20000, 6.0
14.28000, 8.0
14.36000, 6.0
14.44000, 5.0
14.52000, 3.0
14.60000, 3.0
14.68000, 3.0
14.76000, 1.0
14.84000, 2.0
14.92000, 3.0
15.00000, 0.0
15.08000, 0.0
15.16000, 0.0
15.24000, 0.0
15.32000, 0.0
15.40000, 0.0
15.48000, 1.0
15.56000, 0.0
15.64000, 0.0
15.72000, 0.0
15.80000, 0.0
15.88000, 0.0
15.96000, 0.0
16.04000, 0.0
16.12000, 0.0
16.20000, 0.0
16.28000, 0.0
16.36000, 0.0
16.44000, 0.0
16.52000, 0.0
16.60000, 0.0
16.68000, 0.0
16.76000, 0.0
16.84000, 0.0
16.92000, 0.0
17.00000, 0.0
17.08000, 0.0
17.16000, 0.0
17.24000, 0.0
17.32000, 0.0
17.40000, 0.0
17.48000, 0.0
17.56000, 0.0
17.64000, 0.0
17.72000, 0.0
17.80000, 0.0
17.88000, 0.0
17.96000, 0.0
18.04000, 0.0
18.12000, 0.0
18.20000, 0.0
18.28000, 0.0
18.36000, 0.0
18.44000, 0.0
18.52000, 0.0
18.60000, 0.0
18.68000, 0.0
18.76000, 0.0
18.84000, 0.0
18.92000, 0.0
19.00000, 0.0
19.08000, 0.0
19.16000, 0.0
19.24000, 0.0
19.32000, 0.0
19.40000, 0.0
19.48000, 0.0
19.56000, 0.0
19.64000, 0.0
19.72000, 0.0
19.80000, 0.0
19.88000, 0.0
19.96000, 0.0
20.04000, 0.0
20.12000, 0.0
20.20000, 0.0
20.26000, 0.0
#ENDOFDATA   :